# (c) 2007-2020 http://NIHPO.com   Licensed to PHUSE for non-commercial purposes only.   Contact: Jose.Lacal@NIHPO.com
# This file's structure is based on the CDISC Therapeutic Areas [https://www.cdisc.org/standards/therapeutic-areas]
# WARNING: This information is completely fake. Values such as Age and Gender are randomly assigned using a Weighted Random Generator.
# CREDIT: The specific fields used in this file are defined by a sample 'Analysis Dataset Programming Specification' Excel file generously provided by Roche.
# Dataset: ADAE|Description: Adverse Events Analysis Dataset
STUDYID|USUBJID|SUBJID|SITEID|COUNTRY|ETHNIC|AGE|AGEU|AAGE|AAGEU|SEX|RACE|ITTFL|SAFFL|PPROTFL|TRT01P|TRT01A|TRTSDTM|TRTSDT|TRTEDTM|TRTEDT|DOMAIN|AESEQ|AEGRPID|AESPID|AETERM|AEMODIFY|AELLT|AELLTCD|AEDECOD|AEPTCD|AEHLT|AEHLTCD|AEHLGT|AEHLGTCD|AECAT|AESCAT|AEPRESP|AEBODSYS|AEBDSYCD|AESOC|AESOCCD|AELOC|AESEV|AESER|AEACN|AEACNOTH|AEREL|AERELNST|AEPATT|AEOUT|AESCAN|AESCONG|AESDISAB|AESDTH|AESHOSP|AESLIFE|AESOD|AESMIE|AECONTRT|AETOXGR|EPOCH|AESTDTC|AEENDTC|AESTDY|AEENDY|AEDUR|AESTRTPT|AESTTPT|AEENRTPT|AEENTPT|AETRTEM|ASTDTM|ASTDT|ASTDTF|ASTTMF|ASTDY|AENDTM|AENDT|AENDTF|AENTMF|AENDY|TRTEMFL|PREFL|FUPFL|AREL|ATOXGR|ADURN|ADURU|LDOSEDTM|LDOSEDT|LDRELD|AOCCIFL|AOCCPIFL|AOCCSIFL|AOCXIFL|AOCXPIFL|AOCXSIFL|ANL01FL
Study14567|9581b3f7-cead-4a92-a9c9-80a301e196f8|d3b34b09-db8a-45bc-ba7e-3c92a98cd8df|Site_04|COUNTRY|ETHNIC|80|Years|AAGE|Years|M|WHITE|ITTFL|SAFFL|PPROTFL|TRT01P|TRT01A|TRTSDTM|TRTSDT|TRTEDTM|TRTEDT|Pending|1|Group_03|cfb05e37-630d-4a3a-b835-b7225ef41c79|AETERM|AEMODIFY|AELLT|AELLTCD|Pending|Pending|Pending|Pending|Pending|Pending|Pending|Pending|Pending|Pending|Pending|Pending|Pending|Pending|Pending|Pending|Pending|Pending|Pending|Pending|Pending|Pending|Pending|Pending|Pending|Pending|Pending|Pending|Pending|Pending|Pending|Pending|Pending|Pending|Pending|Pending|Pending|Pending|Pending|Pending|Pending|Pending|Pending|Pending|Pending|Pending|Pending|Pending|Pending|Pending|Pending|Pending|Pending|Pending|Pending|Pending|Pending|Pending|Pending|Pending|Pending|Pending|Pending|Pending|Pending|Pending|Pending|Pending|Pending|Pending
Study14567|f26838f4-f044-420c-91b8-23f8be6ffc2f|a1d4f40f-1f78-45b3-b9f9-98ae322278c1|Site_03|COUNTRY|ETHNIC|85|Years|AAGE|Years|F|WHITE|ITTFL|SAFFL|PPROTFL|TRT01P|TRT01A|TRTSDTM|TRTSDT|TRTEDTM|TRTEDT|Pending|2|Group_04|ab9a31d5-bb32-4ba6-a704-8709f096d2ad|AETERM|AEMODIFY|AELLT|AELLTCD|Pending|Pending|Pending|Pending|Pending|Pending|Pending|Pending|Pending|Pending|Pending|Pending|Pending|Pending|Pending|Pending|Pending|Pending|Pending|Pending|Pending|Pending|Pending|Pending|Pending|Pending|Pending|Pending|Pending|Pending|Pending|Pending|Pending|Pending|Pending|Pending|Pending|Pending|Pending|Pending|Pending|Pending|Pending|Pending|Pending|Pending|Pending|Pending|Pending|Pending|Pending|Pending|Pending|Pending|Pending|Pending|Pending|Pending|Pending|Pending|Pending|Pending|Pending|Pending|Pending|Pending|Pending|Pending|Pending|Pending
Study14567|18d7ec25-5439-4b42-847b-7369006c5477|b8ff8342-a2c0-4c99-a20d-52453b1be897|Site_02|COUNTRY|ETHNIC|36|Years|AAGE|Years|F|WHITE|ITTFL|SAFFL|PPROTFL|TRT01P|TRT01A|TRTSDTM|TRTSDT|TRTEDTM|TRTEDT|Pending|3|Group_04|06238fa1-8b15-4913-9fa8-796a42a1827b|AETERM|AEMODIFY|AELLT|AELLTCD|Pending|Pending|Pending|Pending|Pending|Pending|Pending|Pending|Pending|Pending|Pending|Pending|Pending|Pending|Pending|Pending|Pending|Pending|Pending|Pending|Pending|Pending|Pending|Pending|Pending|Pending|Pending|Pending|Pending|Pending|Pending|Pending|Pending|Pending|Pending|Pending|Pending|Pending|Pending|Pending|Pending|Pending|Pending|Pending|Pending|Pending|Pending|Pending|Pending|Pending|Pending|Pending|Pending|Pending|Pending|Pending|Pending|Pending|Pending|Pending|Pending|Pending|Pending|Pending|Pending|Pending|Pending|Pending|Pending|Pending
Study14567|148e7631-be2b-4521-aba9-29b443bcbb90|8e0929ea-3bb1-4b49-8a67-adb09c82735b|Site_03|COUNTRY|ETHNIC|81|Years|AAGE|Years|F|NATIVE HAWAIIAN OR OTHER PACIFIC ISLANDER|ITTFL|SAFFL|PPROTFL|TRT01P|TRT01A|TRTSDTM|TRTSDT|TRTEDTM|TRTEDT|Pending|4|Group_03|a511ffbf-04a3-4a6d-b9a3-40bf584e79c5|AETERM|AEMODIFY|AELLT|AELLTCD|Pending|Pending|Pending|Pending|Pending|Pending|Pending|Pending|Pending|Pending|Pending|Pending|Pending|Pending|Pending|Pending|Pending|Pending|Pending|Pending|Pending|Pending|Pending|Pending|Pending|Pending|Pending|Pending|Pending|Pending|Pending|Pending|Pending|Pending|Pending|Pending|Pending|Pending|Pending|Pending|Pending|Pending|Pending|Pending|Pending|Pending|Pending|Pending|Pending|Pending|Pending|Pending|Pending|Pending|Pending|Pending|Pending|Pending|Pending|Pending|Pending|Pending|Pending|Pending|Pending|Pending|Pending|Pending|Pending|Pending
Study14567|4ff98a49-0898-4bb6-9a1c-8ab40b931a15|d266b009-e6e5-460e-a3f5-9d156457fa6b|Site_02|COUNTRY|ETHNIC|18|Years|AAGE|Years|M|WHITE|ITTFL|SAFFL|PPROTFL|TRT01P|TRT01A|TRTSDTM|TRTSDT|TRTEDTM|TRTEDT|Pending|5|Group_02|22aa1326-596b-453c-b6b5-e583d995c149|AETERM|AEMODIFY|AELLT|AELLTCD|Pending|Pending|Pending|Pending|Pending|Pending|Pending|Pending|Pending|Pending|Pending|Pending|Pending|Pending|Pending|Pending|Pending|Pending|Pending|Pending|Pending|Pending|Pending|Pending|Pending|Pending|Pending|Pending|Pending|Pending|Pending|Pending|Pending|Pending|Pending|Pending|Pending|Pending|Pending|Pending|Pending|Pending|Pending|Pending|Pending|Pending|Pending|Pending|Pending|Pending|Pending|Pending|Pending|Pending|Pending|Pending|Pending|Pending|Pending|Pending|Pending|Pending|Pending|Pending|Pending|Pending|Pending|Pending|Pending|Pending
Study14567|4529a72e-8e55-4597-b542-2d3dcd75c642|9ed7a863-d117-45cc-8bd5-0e223988e389|Site_03|COUNTRY|ETHNIC|47|Years|AAGE|Years|M|WHITE|ITTFL|SAFFL|PPROTFL|TRT01P|TRT01A|TRTSDTM|TRTSDT|TRTEDTM|TRTEDT|Pending|6|Group_04|8877ab94-a20c-4ce9-8b32-45decf642be5|AETERM|AEMODIFY|AELLT|AELLTCD|Pending|Pending|Pending|Pending|Pending|Pending|Pending|Pending|Pending|Pending|Pending|Pending|Pending|Pending|Pending|Pending|Pending|Pending|Pending|Pending|Pending|Pending|Pending|Pending|Pending|Pending|Pending|Pending|Pending|Pending|Pending|Pending|Pending|Pending|Pending|Pending|Pending|Pending|Pending|Pending|Pending|Pending|Pending|Pending|Pending|Pending|Pending|Pending|Pending|Pending|Pending|Pending|Pending|Pending|Pending|Pending|Pending|Pending|Pending|Pending|Pending|Pending|Pending|Pending|Pending|Pending|Pending|Pending|Pending|Pending
Study14567|0833d5b5-82f5-4b32-ae80-04b857a1f79b|d32315d6-5264-45c0-abac-bcab90237334|Site_04|COUNTRY|ETHNIC|45|Years|AAGE|Years|M|WHITE|ITTFL|SAFFL|PPROTFL|TRT01P|TRT01A|TRTSDTM|TRTSDT|TRTEDTM|TRTEDT|Pending|7|Group_02|7355c9c6-e008-4708-8396-388c135adf19|AETERM|AEMODIFY|AELLT|AELLTCD|Pending|Pending|Pending|Pending|Pending|Pending|Pending|Pending|Pending|Pending|Pending|Pending|Pending|Pending|Pending|Pending|Pending|Pending|Pending|Pending|Pending|Pending|Pending|Pending|Pending|Pending|Pending|Pending|Pending|Pending|Pending|Pending|Pending|Pending|Pending|Pending|Pending|Pending|Pending|Pending|Pending|Pending|Pending|Pending|Pending|Pending|Pending|Pending|Pending|Pending|Pending|Pending|Pending|Pending|Pending|Pending|Pending|Pending|Pending|Pending|Pending|Pending|Pending|Pending|Pending|Pending|Pending|Pending|Pending|Pending
Study14567|2713c748-7bc8-4499-b93f-2b769feabfa0|797c5bbd-39cc-4086-81e4-524cf77cd638|Site_03|COUNTRY|ETHNIC|58|Years|AAGE|Years|M|ASIAN|ITTFL|SAFFL|PPROTFL|TRT01P|TRT01A|TRTSDTM|TRTSDT|TRTEDTM|TRTEDT|Pending|8|Group_03|412c8494-2979-4749-a78b-d25c958dd095|AETERM|AEMODIFY|AELLT|AELLTCD|Pending|Pending|Pending|Pending|Pending|Pending|Pending|Pending|Pending|Pending|Pending|Pending|Pending|Pending|Pending|Pending|Pending|Pending|Pending|Pending|Pending|Pending|Pending|Pending|Pending|Pending|Pending|Pending|Pending|Pending|Pending|Pending|Pending|Pending|Pending|Pending|Pending|Pending|Pending|Pending|Pending|Pending|Pending|Pending|Pending|Pending|Pending|Pending|Pending|Pending|Pending|Pending|Pending|Pending|Pending|Pending|Pending|Pending|Pending|Pending|Pending|Pending|Pending|Pending|Pending|Pending|Pending|Pending|Pending|Pending
Study14567|2f2cc677-03c9-434a-9434-9841664c27cf|36b898bc-7f93-4f9e-a741-ee7b88d475e9|Site_03|COUNTRY|ETHNIC|20|Years|AAGE|Years|M|WHITE|ITTFL|SAFFL|PPROTFL|TRT01P|TRT01A|TRTSDTM|TRTSDT|TRTEDTM|TRTEDT|Pending|9|Group_03|3e11a791-3620-4826-b7c7-219f097aa88e|AETERM|AEMODIFY|AELLT|AELLTCD|Pending|Pending|Pending|Pending|Pending|Pending|Pending|Pending|Pending|Pending|Pending|Pending|Pending|Pending|Pending|Pending|Pending|Pending|Pending|Pending|Pending|Pending|Pending|Pending|Pending|Pending|Pending|Pending|Pending|Pending|Pending|Pending|Pending|Pending|Pending|Pending|Pending|Pending|Pending|Pending|Pending|Pending|Pending|Pending|Pending|Pending|Pending|Pending|Pending|Pending|Pending|Pending|Pending|Pending|Pending|Pending|Pending|Pending|Pending|Pending|Pending|Pending|Pending|Pending|Pending|Pending|Pending|Pending|Pending|Pending
Study14567|e2ae8236-cb80-407d-852e-1ec1ebb35cfe|faa2c309-10a8-471d-baf9-ce03316a9154|Site_04|COUNTRY|ETHNIC|80|Years|AAGE|Years|F|WHITE|ITTFL|SAFFL|PPROTFL|TRT01P|TRT01A|TRTSDTM|TRTSDT|TRTEDTM|TRTEDT|Pending|10|Group_03|a5280083-bbfc-4f6c-af1f-ef340e431e22|AETERM|AEMODIFY|AELLT|AELLTCD|Pending|Pending|Pending|Pending|Pending|Pending|Pending|Pending|Pending|Pending|Pending|Pending|Pending|Pending|Pending|Pending|Pending|Pending|Pending|Pending|Pending|Pending|Pending|Pending|Pending|Pending|Pending|Pending|Pending|Pending|Pending|Pending|Pending|Pending|Pending|Pending|Pending|Pending|Pending|Pending|Pending|Pending|Pending|Pending|Pending|Pending|Pending|Pending|Pending|Pending|Pending|Pending|Pending|Pending|Pending|Pending|Pending|Pending|Pending|Pending|Pending|Pending|Pending|Pending|Pending|Pending|Pending|Pending|Pending|Pending
Study14567|d0f70325-885a-4309-bbec-d4981bdd41f5|b0d392ae-09e2-4e96-848b-5621ad4cfb0e|Site_03|COUNTRY|ETHNIC|28|Years|AAGE|Years|F|WHITE|ITTFL|SAFFL|PPROTFL|TRT01P|TRT01A|TRTSDTM|TRTSDT|TRTEDTM|TRTEDT|Pending|11|Group_03|ca3534fa-fe03-44fd-a41f-0308c64c2a95|AETERM|AEMODIFY|AELLT|AELLTCD|Pending|Pending|Pending|Pending|Pending|Pending|Pending|Pending|Pending|Pending|Pending|Pending|Pending|Pending|Pending|Pending|Pending|Pending|Pending|Pending|Pending|Pending|Pending|Pending|Pending|Pending|Pending|Pending|Pending|Pending|Pending|Pending|Pending|Pending|Pending|Pending|Pending|Pending|Pending|Pending|Pending|Pending|Pending|Pending|Pending|Pending|Pending|Pending|Pending|Pending|Pending|Pending|Pending|Pending|Pending|Pending|Pending|Pending|Pending|Pending|Pending|Pending|Pending|Pending|Pending|Pending|Pending|Pending|Pending|Pending
Study14567|0694c04e-919e-43fc-9cec-24ef91254e12|4b3c6cf3-3c8c-446d-b781-295ef9a2b0f4|Site_03|COUNTRY|ETHNIC|41|Years|AAGE|Years|F|WHITE|ITTFL|SAFFL|PPROTFL|TRT01P|TRT01A|TRTSDTM|TRTSDT|TRTEDTM|TRTEDT|Pending|12|Group_04|58b5d19d-77e9-4dc9-aa4e-df2783c33f5a|AETERM|AEMODIFY|AELLT|AELLTCD|Pending|Pending|Pending|Pending|Pending|Pending|Pending|Pending|Pending|Pending|Pending|Pending|Pending|Pending|Pending|Pending|Pending|Pending|Pending|Pending|Pending|Pending|Pending|Pending|Pending|Pending|Pending|Pending|Pending|Pending|Pending|Pending|Pending|Pending|Pending|Pending|Pending|Pending|Pending|Pending|Pending|Pending|Pending|Pending|Pending|Pending|Pending|Pending|Pending|Pending|Pending|Pending|Pending|Pending|Pending|Pending|Pending|Pending|Pending|Pending|Pending|Pending|Pending|Pending|Pending|Pending|Pending|Pending|Pending|Pending
Study14567|b0ebf116-d650-4daf-b648-da984f77e952|9e03b943-a917-41ae-b5bd-ca0f1e82c3c5|Site_03|COUNTRY|ETHNIC|44|Years|AAGE|Years|F|WHITE|ITTFL|SAFFL|PPROTFL|TRT01P|TRT01A|TRTSDTM|TRTSDT|TRTEDTM|TRTEDT|Pending|13|Group_04|2bf47509-bd8d-4375-8cb1-a1027fc349d3|AETERM|AEMODIFY|AELLT|AELLTCD|Pending|Pending|Pending|Pending|Pending|Pending|Pending|Pending|Pending|Pending|Pending|Pending|Pending|Pending|Pending|Pending|Pending|Pending|Pending|Pending|Pending|Pending|Pending|Pending|Pending|Pending|Pending|Pending|Pending|Pending|Pending|Pending|Pending|Pending|Pending|Pending|Pending|Pending|Pending|Pending|Pending|Pending|Pending|Pending|Pending|Pending|Pending|Pending|Pending|Pending|Pending|Pending|Pending|Pending|Pending|Pending|Pending|Pending|Pending|Pending|Pending|Pending|Pending|Pending|Pending|Pending|Pending|Pending|Pending|Pending
Study14567|412004de-ef29-471c-ae9b-8abfacb33098|1025a409-1e51-40fb-9104-e96f84c9e8c2|Site_03|COUNTRY|ETHNIC|46|Years|AAGE|Years|M|BLACK OR AFRICAN AMERICAN|ITTFL|SAFFL|PPROTFL|TRT01P|TRT01A|TRTSDTM|TRTSDT|TRTEDTM|TRTEDT|Pending|14|Group_02|d320365f-274b-4030-8592-ef67b623de88|AETERM|AEMODIFY|AELLT|AELLTCD|Pending|Pending|Pending|Pending|Pending|Pending|Pending|Pending|Pending|Pending|Pending|Pending|Pending|Pending|Pending|Pending|Pending|Pending|Pending|Pending|Pending|Pending|Pending|Pending|Pending|Pending|Pending|Pending|Pending|Pending|Pending|Pending|Pending|Pending|Pending|Pending|Pending|Pending|Pending|Pending|Pending|Pending|Pending|Pending|Pending|Pending|Pending|Pending|Pending|Pending|Pending|Pending|Pending|Pending|Pending|Pending|Pending|Pending|Pending|Pending|Pending|Pending|Pending|Pending|Pending|Pending|Pending|Pending|Pending|Pending
Study14567|75c78d2e-9d77-4b8e-9324-4b9dc87a8063|f9dcc5f0-1df8-4940-8a30-852855300b67|Site_01|COUNTRY|ETHNIC|71|Years|AAGE|Years|M|AMERICAN INDIAN OR ALASKA NATIVE|ITTFL|SAFFL|PPROTFL|TRT01P|TRT01A|TRTSDTM|TRTSDT|TRTEDTM|TRTEDT|Pending|15|Group_03|8cc04c7b-11a1-4652-a5ee-b5ebbdbd1db1|AETERM|AEMODIFY|AELLT|AELLTCD|Pending|Pending|Pending|Pending|Pending|Pending|Pending|Pending|Pending|Pending|Pending|Pending|Pending|Pending|Pending|Pending|Pending|Pending|Pending|Pending|Pending|Pending|Pending|Pending|Pending|Pending|Pending|Pending|Pending|Pending|Pending|Pending|Pending|Pending|Pending|Pending|Pending|Pending|Pending|Pending|Pending|Pending|Pending|Pending|Pending|Pending|Pending|Pending|Pending|Pending|Pending|Pending|Pending|Pending|Pending|Pending|Pending|Pending|Pending|Pending|Pending|Pending|Pending|Pending|Pending|Pending|Pending|Pending|Pending|Pending
Study14567|f4cf5974-b58b-4f7b-a88d-b5db5a3842cd|d9caacd8-9f61-4be2-a606-9cbade8831e3|Site_03|COUNTRY|ETHNIC|30|Years|AAGE|Years|M|BLACK OR AFRICAN AMERICAN|ITTFL|SAFFL|PPROTFL|TRT01P|TRT01A|TRTSDTM|TRTSDT|TRTEDTM|TRTEDT|Pending|16|Group_03|bdd01d7b-4650-440e-b019-ab05dbb7eaa0|AETERM|AEMODIFY|AELLT|AELLTCD|Pending|Pending|Pending|Pending|Pending|Pending|Pending|Pending|Pending|Pending|Pending|Pending|Pending|Pending|Pending|Pending|Pending|Pending|Pending|Pending|Pending|Pending|Pending|Pending|Pending|Pending|Pending|Pending|Pending|Pending|Pending|Pending|Pending|Pending|Pending|Pending|Pending|Pending|Pending|Pending|Pending|Pending|Pending|Pending|Pending|Pending|Pending|Pending|Pending|Pending|Pending|Pending|Pending|Pending|Pending|Pending|Pending|Pending|Pending|Pending|Pending|Pending|Pending|Pending|Pending|Pending|Pending|Pending|Pending|Pending
Study14567|8b5a5b88-5d21-4de0-bc53-1ee5003e4d4d|4d50d7a1-5839-4be2-8a03-c1e2fe6c6612|Site_01|COUNTRY|ETHNIC|57|Years|AAGE|Years|M|WHITE|ITTFL|SAFFL|PPROTFL|TRT01P|TRT01A|TRTSDTM|TRTSDT|TRTEDTM|TRTEDT|Pending|17|Group_01|57dc479d-c594-4760-a078-d760e47afffc|AETERM|AEMODIFY|AELLT|AELLTCD|Pending|Pending|Pending|Pending|Pending|Pending|Pending|Pending|Pending|Pending|Pending|Pending|Pending|Pending|Pending|Pending|Pending|Pending|Pending|Pending|Pending|Pending|Pending|Pending|Pending|Pending|Pending|Pending|Pending|Pending|Pending|Pending|Pending|Pending|Pending|Pending|Pending|Pending|Pending|Pending|Pending|Pending|Pending|Pending|Pending|Pending|Pending|Pending|Pending|Pending|Pending|Pending|Pending|Pending|Pending|Pending|Pending|Pending|Pending|Pending|Pending|Pending|Pending|Pending|Pending|Pending|Pending|Pending|Pending|Pending
Study14567|3e4b18ac-d3a8-4f1f-808a-0ca5b651a520|d049cda0-aee9-4333-9d55-9452cad490ef|Site_03|COUNTRY|ETHNIC|49|Years|AAGE|Years|F|WHITE|ITTFL|SAFFL|PPROTFL|TRT01P|TRT01A|TRTSDTM|TRTSDT|TRTEDTM|TRTEDT|Pending|18|Group_02|3202c1f7-1d8e-4baa-a99e-38dbaa06e961|AETERM|AEMODIFY|AELLT|AELLTCD|Pending|Pending|Pending|Pending|Pending|Pending|Pending|Pending|Pending|Pending|Pending|Pending|Pending|Pending|Pending|Pending|Pending|Pending|Pending|Pending|Pending|Pending|Pending|Pending|Pending|Pending|Pending|Pending|Pending|Pending|Pending|Pending|Pending|Pending|Pending|Pending|Pending|Pending|Pending|Pending|Pending|Pending|Pending|Pending|Pending|Pending|Pending|Pending|Pending|Pending|Pending|Pending|Pending|Pending|Pending|Pending|Pending|Pending|Pending|Pending|Pending|Pending|Pending|Pending|Pending|Pending|Pending|Pending|Pending|Pending
Study14567|e0e81910-f925-4e5d-a70e-383416fe3868|0abc1fa1-83d3-458e-9198-981b56db3190|Site_03|COUNTRY|ETHNIC|27|Years|AAGE|Years|M|WHITE|ITTFL|SAFFL|PPROTFL|TRT01P|TRT01A|TRTSDTM|TRTSDT|TRTEDTM|TRTEDT|Pending|19|Group_03|7714355d-726b-4322-a20a-dd234c36d7fe|AETERM|AEMODIFY|AELLT|AELLTCD|Pending|Pending|Pending|Pending|Pending|Pending|Pending|Pending|Pending|Pending|Pending|Pending|Pending|Pending|Pending|Pending|Pending|Pending|Pending|Pending|Pending|Pending|Pending|Pending|Pending|Pending|Pending|Pending|Pending|Pending|Pending|Pending|Pending|Pending|Pending|Pending|Pending|Pending|Pending|Pending|Pending|Pending|Pending|Pending|Pending|Pending|Pending|Pending|Pending|Pending|Pending|Pending|Pending|Pending|Pending|Pending|Pending|Pending|Pending|Pending|Pending|Pending|Pending|Pending|Pending|Pending|Pending|Pending|Pending|Pending
Study14567|51066736-c60b-4511-a962-cf6bdcc52bb4|6ad8e6d6-2d88-4e45-82bd-2f1b32038187|Site_04|COUNTRY|ETHNIC|57|Years|AAGE|Years|F|AMERICAN INDIAN OR ALASKA NATIVE|ITTFL|SAFFL|PPROTFL|TRT01P|TRT01A|TRTSDTM|TRTSDT|TRTEDTM|TRTEDT|Pending|20|Group_03|c40ccdc1-4f99-4a03-9a5d-6208a694fec2|AETERM|AEMODIFY|AELLT|AELLTCD|Pending|Pending|Pending|Pending|Pending|Pending|Pending|Pending|Pending|Pending|Pending|Pending|Pending|Pending|Pending|Pending|Pending|Pending|Pending|Pending|Pending|Pending|Pending|Pending|Pending|Pending|Pending|Pending|Pending|Pending|Pending|Pending|Pending|Pending|Pending|Pending|Pending|Pending|Pending|Pending|Pending|Pending|Pending|Pending|Pending|Pending|Pending|Pending|Pending|Pending|Pending|Pending|Pending|Pending|Pending|Pending|Pending|Pending|Pending|Pending|Pending|Pending|Pending|Pending|Pending|Pending|Pending|Pending|Pending|Pending
Study14567|ceba7148-76e0-4b8d-8613-59753df29d45|a53165d0-9426-41f0-801e-c4f2edc9775c|Site_03|COUNTRY|ETHNIC|44|Years|AAGE|Years|M|WHITE|ITTFL|SAFFL|PPROTFL|TRT01P|TRT01A|TRTSDTM|TRTSDT|TRTEDTM|TRTEDT|Pending|21|Group_02|f79221b0-09a3-40c9-be07-7ba628dcd1f0|AETERM|AEMODIFY|AELLT|AELLTCD|Pending|Pending|Pending|Pending|Pending|Pending|Pending|Pending|Pending|Pending|Pending|Pending|Pending|Pending|Pending|Pending|Pending|Pending|Pending|Pending|Pending|Pending|Pending|Pending|Pending|Pending|Pending|Pending|Pending|Pending|Pending|Pending|Pending|Pending|Pending|Pending|Pending|Pending|Pending|Pending|Pending|Pending|Pending|Pending|Pending|Pending|Pending|Pending|Pending|Pending|Pending|Pending|Pending|Pending|Pending|Pending|Pending|Pending|Pending|Pending|Pending|Pending|Pending|Pending|Pending|Pending|Pending|Pending|Pending|Pending
Study14567|7556a77b-fab4-488f-9c2f-21b62201f3e2|81ef7bce-e817-4b4e-bfc2-5183c2d7bac5|Site_04|COUNTRY|ETHNIC|50|Years|AAGE|Years|F|WHITE|ITTFL|SAFFL|PPROTFL|TRT01P|TRT01A|TRTSDTM|TRTSDT|TRTEDTM|TRTEDT|Pending|22|Group_03|3724f031-3cc3-48b3-a63d-7953e5062682|AETERM|AEMODIFY|AELLT|AELLTCD|Pending|Pending|Pending|Pending|Pending|Pending|Pending|Pending|Pending|Pending|Pending|Pending|Pending|Pending|Pending|Pending|Pending|Pending|Pending|Pending|Pending|Pending|Pending|Pending|Pending|Pending|Pending|Pending|Pending|Pending|Pending|Pending|Pending|Pending|Pending|Pending|Pending|Pending|Pending|Pending|Pending|Pending|Pending|Pending|Pending|Pending|Pending|Pending|Pending|Pending|Pending|Pending|Pending|Pending|Pending|Pending|Pending|Pending|Pending|Pending|Pending|Pending|Pending|Pending|Pending|Pending|Pending|Pending|Pending|Pending
Study14567|2a2f90bc-91ce-4a6a-85f1-1419bfd72f3b|c3a5a215-415d-4db6-a336-6873a04cf338|Site_04|COUNTRY|ETHNIC|37|Years|AAGE|Years|M|WHITE|ITTFL|SAFFL|PPROTFL|TRT01P|TRT01A|TRTSDTM|TRTSDT|TRTEDTM|TRTEDT|Pending|23|Group_04|5fbc4593-ac9c-4111-a59d-caff6f3953b7|AETERM|AEMODIFY|AELLT|AELLTCD|Pending|Pending|Pending|Pending|Pending|Pending|Pending|Pending|Pending|Pending|Pending|Pending|Pending|Pending|Pending|Pending|Pending|Pending|Pending|Pending|Pending|Pending|Pending|Pending|Pending|Pending|Pending|Pending|Pending|Pending|Pending|Pending|Pending|Pending|Pending|Pending|Pending|Pending|Pending|Pending|Pending|Pending|Pending|Pending|Pending|Pending|Pending|Pending|Pending|Pending|Pending|Pending|Pending|Pending|Pending|Pending|Pending|Pending|Pending|Pending|Pending|Pending|Pending|Pending|Pending|Pending|Pending|Pending|Pending|Pending
Study14567|4bec4bda-a87c-48e9-9361-d563175feaf5|5249384b-8299-4090-adc5-05bad967b291|Site_04|COUNTRY|ETHNIC|66|Years|AAGE|Years|F|ASIAN|ITTFL|SAFFL|PPROTFL|TRT01P|TRT01A|TRTSDTM|TRTSDT|TRTEDTM|TRTEDT|Pending|24|Group_03|0930074a-5b70-4fa2-bf0d-ebe972bf972d|AETERM|AEMODIFY|AELLT|AELLTCD|Pending|Pending|Pending|Pending|Pending|Pending|Pending|Pending|Pending|Pending|Pending|Pending|Pending|Pending|Pending|Pending|Pending|Pending|Pending|Pending|Pending|Pending|Pending|Pending|Pending|Pending|Pending|Pending|Pending|Pending|Pending|Pending|Pending|Pending|Pending|Pending|Pending|Pending|Pending|Pending|Pending|Pending|Pending|Pending|Pending|Pending|Pending|Pending|Pending|Pending|Pending|Pending|Pending|Pending|Pending|Pending|Pending|Pending|Pending|Pending|Pending|Pending|Pending|Pending|Pending|Pending|Pending|Pending|Pending|Pending
Study14567|f667b554-cbb7-4dd4-9218-f1e81bf68de0|d5f54321-d52c-4469-beab-007f7f6668d1|Site_03|COUNTRY|ETHNIC|81|Years|AAGE|Years|F|ASIAN|ITTFL|SAFFL|PPROTFL|TRT01P|TRT01A|TRTSDTM|TRTSDT|TRTEDTM|TRTEDT|Pending|25|Group_01|90670f32-a4a3-48e4-83c3-ad2568f39d5d|AETERM|AEMODIFY|AELLT|AELLTCD|Pending|Pending|Pending|Pending|Pending|Pending|Pending|Pending|Pending|Pending|Pending|Pending|Pending|Pending|Pending|Pending|Pending|Pending|Pending|Pending|Pending|Pending|Pending|Pending|Pending|Pending|Pending|Pending|Pending|Pending|Pending|Pending|Pending|Pending|Pending|Pending|Pending|Pending|Pending|Pending|Pending|Pending|Pending|Pending|Pending|Pending|Pending|Pending|Pending|Pending|Pending|Pending|Pending|Pending|Pending|Pending|Pending|Pending|Pending|Pending|Pending|Pending|Pending|Pending|Pending|Pending|Pending|Pending|Pending|Pending
Study14567|694d2dfc-326a-4a50-9c67-2862ba9fb0dd|3669c20f-ac7f-4b46-a268-7d35cfc314c9|Site_01|COUNTRY|ETHNIC|76|Years|AAGE|Years|F|WHITE|ITTFL|SAFFL|PPROTFL|TRT01P|TRT01A|TRTSDTM|TRTSDT|TRTEDTM|TRTEDT|Pending|26|Group_03|e4eb6972-bb43-4af4-9476-ddcaea491061|AETERM|AEMODIFY|AELLT|AELLTCD|Pending|Pending|Pending|Pending|Pending|Pending|Pending|Pending|Pending|Pending|Pending|Pending|Pending|Pending|Pending|Pending|Pending|Pending|Pending|Pending|Pending|Pending|Pending|Pending|Pending|Pending|Pending|Pending|Pending|Pending|Pending|Pending|Pending|Pending|Pending|Pending|Pending|Pending|Pending|Pending|Pending|Pending|Pending|Pending|Pending|Pending|Pending|Pending|Pending|Pending|Pending|Pending|Pending|Pending|Pending|Pending|Pending|Pending|Pending|Pending|Pending|Pending|Pending|Pending|Pending|Pending|Pending|Pending|Pending|Pending
Study14567|315934a3-f5b9-426f-b01b-ba3c5d3741e8|9d666249-168a-47f7-9a81-bbff365095c7|Site_01|COUNTRY|ETHNIC|80|Years|AAGE|Years|M|BLACK OR AFRICAN AMERICAN|ITTFL|SAFFL|PPROTFL|TRT01P|TRT01A|TRTSDTM|TRTSDT|TRTEDTM|TRTEDT|Pending|27|Group_02|c851a592-c577-4994-9290-6859912d0d32|AETERM|AEMODIFY|AELLT|AELLTCD|Pending|Pending|Pending|Pending|Pending|Pending|Pending|Pending|Pending|Pending|Pending|Pending|Pending|Pending|Pending|Pending|Pending|Pending|Pending|Pending|Pending|Pending|Pending|Pending|Pending|Pending|Pending|Pending|Pending|Pending|Pending|Pending|Pending|Pending|Pending|Pending|Pending|Pending|Pending|Pending|Pending|Pending|Pending|Pending|Pending|Pending|Pending|Pending|Pending|Pending|Pending|Pending|Pending|Pending|Pending|Pending|Pending|Pending|Pending|Pending|Pending|Pending|Pending|Pending|Pending|Pending|Pending|Pending|Pending|Pending
Study14567|88dee39a-6e52-41b0-9451-91b20a7210d3|39988513-4951-4664-9a6f-bea0c91c46ee|Site_03|COUNTRY|ETHNIC|69|Years|AAGE|Years|F|ASIAN|ITTFL|SAFFL|PPROTFL|TRT01P|TRT01A|TRTSDTM|TRTSDT|TRTEDTM|TRTEDT|Pending|28|Group_03|4f3f8dda-7b78-4836-93c2-881331dabfaa|AETERM|AEMODIFY|AELLT|AELLTCD|Pending|Pending|Pending|Pending|Pending|Pending|Pending|Pending|Pending|Pending|Pending|Pending|Pending|Pending|Pending|Pending|Pending|Pending|Pending|Pending|Pending|Pending|Pending|Pending|Pending|Pending|Pending|Pending|Pending|Pending|Pending|Pending|Pending|Pending|Pending|Pending|Pending|Pending|Pending|Pending|Pending|Pending|Pending|Pending|Pending|Pending|Pending|Pending|Pending|Pending|Pending|Pending|Pending|Pending|Pending|Pending|Pending|Pending|Pending|Pending|Pending|Pending|Pending|Pending|Pending|Pending|Pending|Pending|Pending|Pending
Study14567|6b3184d9-a29d-4650-ba1e-b60b49c701ca|82458e5a-7e8e-43a7-9140-0f3f3fbe60d2|Site_03|COUNTRY|ETHNIC|21|Years|AAGE|Years|F|BLACK OR AFRICAN AMERICAN|ITTFL|SAFFL|PPROTFL|TRT01P|TRT01A|TRTSDTM|TRTSDT|TRTEDTM|TRTEDT|Pending|29|Group_03|57f0dbf5-e92a-45ab-8e3c-2fd8e4fff4f5|AETERM|AEMODIFY|AELLT|AELLTCD|Pending|Pending|Pending|Pending|Pending|Pending|Pending|Pending|Pending|Pending|Pending|Pending|Pending|Pending|Pending|Pending|Pending|Pending|Pending|Pending|Pending|Pending|Pending|Pending|Pending|Pending|Pending|Pending|Pending|Pending|Pending|Pending|Pending|Pending|Pending|Pending|Pending|Pending|Pending|Pending|Pending|Pending|Pending|Pending|Pending|Pending|Pending|Pending|Pending|Pending|Pending|Pending|Pending|Pending|Pending|Pending|Pending|Pending|Pending|Pending|Pending|Pending|Pending|Pending|Pending|Pending|Pending|Pending|Pending|Pending
Study14567|35b01f3c-a46e-49d0-b368-601a762cd510|6ac7cf65-81ef-4be5-a648-022e8ae8456f|Site_02|COUNTRY|ETHNIC|40|Years|AAGE|Years|M|NATIVE HAWAIIAN OR OTHER PACIFIC ISLANDER|ITTFL|SAFFL|PPROTFL|TRT01P|TRT01A|TRTSDTM|TRTSDT|TRTEDTM|TRTEDT|Pending|30|Group_04|897c9720-472c-435e-8d54-167f9d30c29b|AETERM|AEMODIFY|AELLT|AELLTCD|Pending|Pending|Pending|Pending|Pending|Pending|Pending|Pending|Pending|Pending|Pending|Pending|Pending|Pending|Pending|Pending|Pending|Pending|Pending|Pending|Pending|Pending|Pending|Pending|Pending|Pending|Pending|Pending|Pending|Pending|Pending|Pending|Pending|Pending|Pending|Pending|Pending|Pending|Pending|Pending|Pending|Pending|Pending|Pending|Pending|Pending|Pending|Pending|Pending|Pending|Pending|Pending|Pending|Pending|Pending|Pending|Pending|Pending|Pending|Pending|Pending|Pending|Pending|Pending|Pending|Pending|Pending|Pending|Pending|Pending
Study14567|a7ac16ed-3fdc-4bd9-8912-3bd20b00dd36|740201d4-17eb-436b-9c59-31db9d407982|Site_03|COUNTRY|ETHNIC|61|Years|AAGE|Years|M|WHITE|ITTFL|SAFFL|PPROTFL|TRT01P|TRT01A|TRTSDTM|TRTSDT|TRTEDTM|TRTEDT|Pending|31|Group_02|dd6f94f7-f87f-4749-830a-8d8ddeb890e5|AETERM|AEMODIFY|AELLT|AELLTCD|Pending|Pending|Pending|Pending|Pending|Pending|Pending|Pending|Pending|Pending|Pending|Pending|Pending|Pending|Pending|Pending|Pending|Pending|Pending|Pending|Pending|Pending|Pending|Pending|Pending|Pending|Pending|Pending|Pending|Pending|Pending|Pending|Pending|Pending|Pending|Pending|Pending|Pending|Pending|Pending|Pending|Pending|Pending|Pending|Pending|Pending|Pending|Pending|Pending|Pending|Pending|Pending|Pending|Pending|Pending|Pending|Pending|Pending|Pending|Pending|Pending|Pending|Pending|Pending|Pending|Pending|Pending|Pending|Pending|Pending
Study14567|1880feee-05b7-4493-9b93-2be0e8400f0c|017134e4-a176-4d4a-9a16-30649cda1ac7|Site_03|COUNTRY|ETHNIC|26|Years|AAGE|Years|M|AMERICAN INDIAN OR ALASKA NATIVE|ITTFL|SAFFL|PPROTFL|TRT01P|TRT01A|TRTSDTM|TRTSDT|TRTEDTM|TRTEDT|Pending|32|Group_01|ce03a0a7-585d-45b3-a05d-9c737b781e32|AETERM|AEMODIFY|AELLT|AELLTCD|Pending|Pending|Pending|Pending|Pending|Pending|Pending|Pending|Pending|Pending|Pending|Pending|Pending|Pending|Pending|Pending|Pending|Pending|Pending|Pending|Pending|Pending|Pending|Pending|Pending|Pending|Pending|Pending|Pending|Pending|Pending|Pending|Pending|Pending|Pending|Pending|Pending|Pending|Pending|Pending|Pending|Pending|Pending|Pending|Pending|Pending|Pending|Pending|Pending|Pending|Pending|Pending|Pending|Pending|Pending|Pending|Pending|Pending|Pending|Pending|Pending|Pending|Pending|Pending|Pending|Pending|Pending|Pending|Pending|Pending
Study14567|945e7c22-d029-4940-87f8-c336e96f7d78|7ad7be84-1e4d-4823-a3f3-46d14c6561a3|Site_03|COUNTRY|ETHNIC|25|Years|AAGE|Years|F|NATIVE HAWAIIAN OR OTHER PACIFIC ISLANDER|ITTFL|SAFFL|PPROTFL|TRT01P|TRT01A|TRTSDTM|TRTSDT|TRTEDTM|TRTEDT|Pending|33|Group_02|4719ab5d-1e7c-476a-b635-e1387c981f78|AETERM|AEMODIFY|AELLT|AELLTCD|Pending|Pending|Pending|Pending|Pending|Pending|Pending|Pending|Pending|Pending|Pending|Pending|Pending|Pending|Pending|Pending|Pending|Pending|Pending|Pending|Pending|Pending|Pending|Pending|Pending|Pending|Pending|Pending|Pending|Pending|Pending|Pending|Pending|Pending|Pending|Pending|Pending|Pending|Pending|Pending|Pending|Pending|Pending|Pending|Pending|Pending|Pending|Pending|Pending|Pending|Pending|Pending|Pending|Pending|Pending|Pending|Pending|Pending|Pending|Pending|Pending|Pending|Pending|Pending|Pending|Pending|Pending|Pending|Pending|Pending
Study14567|35342755-4f63-4e77-b345-fe5074f11719|84d13e06-8fba-4a25-b953-c75810b93abf|Site_04|COUNTRY|ETHNIC|41|Years|AAGE|Years|M|AMERICAN INDIAN OR ALASKA NATIVE|ITTFL|SAFFL|PPROTFL|TRT01P|TRT01A|TRTSDTM|TRTSDT|TRTEDTM|TRTEDT|Pending|34|Group_03|41c5fa41-a9b4-4bcf-95b2-ac6c7e9cbb6c|AETERM|AEMODIFY|AELLT|AELLTCD|Pending|Pending|Pending|Pending|Pending|Pending|Pending|Pending|Pending|Pending|Pending|Pending|Pending|Pending|Pending|Pending|Pending|Pending|Pending|Pending|Pending|Pending|Pending|Pending|Pending|Pending|Pending|Pending|Pending|Pending|Pending|Pending|Pending|Pending|Pending|Pending|Pending|Pending|Pending|Pending|Pending|Pending|Pending|Pending|Pending|Pending|Pending|Pending|Pending|Pending|Pending|Pending|Pending|Pending|Pending|Pending|Pending|Pending|Pending|Pending|Pending|Pending|Pending|Pending|Pending|Pending|Pending|Pending|Pending|Pending
Study14567|c98fd606-a783-400f-bc5e-17cebf690b7d|53f9f7db-4c50-4c57-9cd2-b48f76c80b6e|Site_04|COUNTRY|ETHNIC|34|Years|AAGE|Years|F|WHITE|ITTFL|SAFFL|PPROTFL|TRT01P|TRT01A|TRTSDTM|TRTSDT|TRTEDTM|TRTEDT|Pending|35|Group_02|40faebc3-fd98-4dcb-a1bc-10bb704d6a96|AETERM|AEMODIFY|AELLT|AELLTCD|Pending|Pending|Pending|Pending|Pending|Pending|Pending|Pending|Pending|Pending|Pending|Pending|Pending|Pending|Pending|Pending|Pending|Pending|Pending|Pending|Pending|Pending|Pending|Pending|Pending|Pending|Pending|Pending|Pending|Pending|Pending|Pending|Pending|Pending|Pending|Pending|Pending|Pending|Pending|Pending|Pending|Pending|Pending|Pending|Pending|Pending|Pending|Pending|Pending|Pending|Pending|Pending|Pending|Pending|Pending|Pending|Pending|Pending|Pending|Pending|Pending|Pending|Pending|Pending|Pending|Pending|Pending|Pending|Pending|Pending
Study14567|619c7bc5-aac3-4bb7-83ff-1123f33d396a|b5ed26be-b2f7-4e14-a08b-c39cb5f73a46|Site_02|COUNTRY|ETHNIC|69|Years|AAGE|Years|F|NATIVE HAWAIIAN OR OTHER PACIFIC ISLANDER|ITTFL|SAFFL|PPROTFL|TRT01P|TRT01A|TRTSDTM|TRTSDT|TRTEDTM|TRTEDT|Pending|36|Group_02|b8cf212c-0b95-4094-855e-d03060013a14|AETERM|AEMODIFY|AELLT|AELLTCD|Pending|Pending|Pending|Pending|Pending|Pending|Pending|Pending|Pending|Pending|Pending|Pending|Pending|Pending|Pending|Pending|Pending|Pending|Pending|Pending|Pending|Pending|Pending|Pending|Pending|Pending|Pending|Pending|Pending|Pending|Pending|Pending|Pending|Pending|Pending|Pending|Pending|Pending|Pending|Pending|Pending|Pending|Pending|Pending|Pending|Pending|Pending|Pending|Pending|Pending|Pending|Pending|Pending|Pending|Pending|Pending|Pending|Pending|Pending|Pending|Pending|Pending|Pending|Pending|Pending|Pending|Pending|Pending|Pending|Pending
Study14567|b3fc9432-c453-492c-813f-cf6a18fe0d0c|e2512704-468b-4f5b-9821-fa8ae6f43749|Site_03|COUNTRY|ETHNIC|73|Years|AAGE|Years|F|ASIAN|ITTFL|SAFFL|PPROTFL|TRT01P|TRT01A|TRTSDTM|TRTSDT|TRTEDTM|TRTEDT|Pending|37|Group_01|a681650b-7e24-49a0-a615-1f4603ebcd5b|AETERM|AEMODIFY|AELLT|AELLTCD|Pending|Pending|Pending|Pending|Pending|Pending|Pending|Pending|Pending|Pending|Pending|Pending|Pending|Pending|Pending|Pending|Pending|Pending|Pending|Pending|Pending|Pending|Pending|Pending|Pending|Pending|Pending|Pending|Pending|Pending|Pending|Pending|Pending|Pending|Pending|Pending|Pending|Pending|Pending|Pending|Pending|Pending|Pending|Pending|Pending|Pending|Pending|Pending|Pending|Pending|Pending|Pending|Pending|Pending|Pending|Pending|Pending|Pending|Pending|Pending|Pending|Pending|Pending|Pending|Pending|Pending|Pending|Pending|Pending|Pending
Study14567|eb2902de-5515-4d0a-94f7-9a06d82a0da6|61f0812d-61d4-4e0e-b87e-ccbd5e9d4ccc|Site_02|COUNTRY|ETHNIC|53|Years|AAGE|Years|M|WHITE|ITTFL|SAFFL|PPROTFL|TRT01P|TRT01A|TRTSDTM|TRTSDT|TRTEDTM|TRTEDT|Pending|38|Group_03|ed1e5deb-809e-474b-b0f7-c2d2d4589a1f|AETERM|AEMODIFY|AELLT|AELLTCD|Pending|Pending|Pending|Pending|Pending|Pending|Pending|Pending|Pending|Pending|Pending|Pending|Pending|Pending|Pending|Pending|Pending|Pending|Pending|Pending|Pending|Pending|Pending|Pending|Pending|Pending|Pending|Pending|Pending|Pending|Pending|Pending|Pending|Pending|Pending|Pending|Pending|Pending|Pending|Pending|Pending|Pending|Pending|Pending|Pending|Pending|Pending|Pending|Pending|Pending|Pending|Pending|Pending|Pending|Pending|Pending|Pending|Pending|Pending|Pending|Pending|Pending|Pending|Pending|Pending|Pending|Pending|Pending|Pending|Pending
Study14567|80fd54f4-3f26-4d18-af4e-5f4b733b301c|09a935d2-3245-4126-8e54-db282b94f130|Site_01|COUNTRY|ETHNIC|53|Years|AAGE|Years|M|WHITE|ITTFL|SAFFL|PPROTFL|TRT01P|TRT01A|TRTSDTM|TRTSDT|TRTEDTM|TRTEDT|Pending|39|Group_01|09d5824a-062f-436e-8bac-c84fe8d77ed9|AETERM|AEMODIFY|AELLT|AELLTCD|Pending|Pending|Pending|Pending|Pending|Pending|Pending|Pending|Pending|Pending|Pending|Pending|Pending|Pending|Pending|Pending|Pending|Pending|Pending|Pending|Pending|Pending|Pending|Pending|Pending|Pending|Pending|Pending|Pending|Pending|Pending|Pending|Pending|Pending|Pending|Pending|Pending|Pending|Pending|Pending|Pending|Pending|Pending|Pending|Pending|Pending|Pending|Pending|Pending|Pending|Pending|Pending|Pending|Pending|Pending|Pending|Pending|Pending|Pending|Pending|Pending|Pending|Pending|Pending|Pending|Pending|Pending|Pending|Pending|Pending
Study14567|2027a233-2a23-4519-8894-ab8f16fa3993|701de41a-6b60-4d23-aa60-3511245618d9|Site_03|COUNTRY|ETHNIC|79|Years|AAGE|Years|F|ASIAN|ITTFL|SAFFL|PPROTFL|TRT01P|TRT01A|TRTSDTM|TRTSDT|TRTEDTM|TRTEDT|Pending|40|Group_01|58a0e2b1-74fb-4439-ae28-df63b5d3b548|AETERM|AEMODIFY|AELLT|AELLTCD|Pending|Pending|Pending|Pending|Pending|Pending|Pending|Pending|Pending|Pending|Pending|Pending|Pending|Pending|Pending|Pending|Pending|Pending|Pending|Pending|Pending|Pending|Pending|Pending|Pending|Pending|Pending|Pending|Pending|Pending|Pending|Pending|Pending|Pending|Pending|Pending|Pending|Pending|Pending|Pending|Pending|Pending|Pending|Pending|Pending|Pending|Pending|Pending|Pending|Pending|Pending|Pending|Pending|Pending|Pending|Pending|Pending|Pending|Pending|Pending|Pending|Pending|Pending|Pending|Pending|Pending|Pending|Pending|Pending|Pending
Study14567|8deb8c98-c2e3-47ca-bc88-1c91c37687ec|7f76c742-37fa-4d17-8e4a-df7234beca62|Site_03|COUNTRY|ETHNIC|73|Years|AAGE|Years|F|BLACK OR AFRICAN AMERICAN|ITTFL|SAFFL|PPROTFL|TRT01P|TRT01A|TRTSDTM|TRTSDT|TRTEDTM|TRTEDT|Pending|41|Group_03|237c9c59-d822-4e9a-8943-c35020d6281d|AETERM|AEMODIFY|AELLT|AELLTCD|Pending|Pending|Pending|Pending|Pending|Pending|Pending|Pending|Pending|Pending|Pending|Pending|Pending|Pending|Pending|Pending|Pending|Pending|Pending|Pending|Pending|Pending|Pending|Pending|Pending|Pending|Pending|Pending|Pending|Pending|Pending|Pending|Pending|Pending|Pending|Pending|Pending|Pending|Pending|Pending|Pending|Pending|Pending|Pending|Pending|Pending|Pending|Pending|Pending|Pending|Pending|Pending|Pending|Pending|Pending|Pending|Pending|Pending|Pending|Pending|Pending|Pending|Pending|Pending|Pending|Pending|Pending|Pending|Pending|Pending
Study14567|8a081d73-ecfc-4937-a9c8-dfea9d3166b0|9bb2bc39-daa4-4208-9251-c59b979ee341|Site_02|COUNTRY|ETHNIC|79|Years|AAGE|Years|F|ASIAN|ITTFL|SAFFL|PPROTFL|TRT01P|TRT01A|TRTSDTM|TRTSDT|TRTEDTM|TRTEDT|Pending|42|Group_03|891f546a-681c-49a5-8240-0b24f859d15b|AETERM|AEMODIFY|AELLT|AELLTCD|Pending|Pending|Pending|Pending|Pending|Pending|Pending|Pending|Pending|Pending|Pending|Pending|Pending|Pending|Pending|Pending|Pending|Pending|Pending|Pending|Pending|Pending|Pending|Pending|Pending|Pending|Pending|Pending|Pending|Pending|Pending|Pending|Pending|Pending|Pending|Pending|Pending|Pending|Pending|Pending|Pending|Pending|Pending|Pending|Pending|Pending|Pending|Pending|Pending|Pending|Pending|Pending|Pending|Pending|Pending|Pending|Pending|Pending|Pending|Pending|Pending|Pending|Pending|Pending|Pending|Pending|Pending|Pending|Pending|Pending
Study14567|ed3d792d-d939-442b-b606-77565a8b8aea|4813b71b-130b-45eb-aad0-2740be088ed2|Site_04|COUNTRY|ETHNIC|77|Years|AAGE|Years|M|WHITE|ITTFL|SAFFL|PPROTFL|TRT01P|TRT01A|TRTSDTM|TRTSDT|TRTEDTM|TRTEDT|Pending|43|Group_02|e64bb48c-43ff-4235-9d3b-c9bef49b8655|AETERM|AEMODIFY|AELLT|AELLTCD|Pending|Pending|Pending|Pending|Pending|Pending|Pending|Pending|Pending|Pending|Pending|Pending|Pending|Pending|Pending|Pending|Pending|Pending|Pending|Pending|Pending|Pending|Pending|Pending|Pending|Pending|Pending|Pending|Pending|Pending|Pending|Pending|Pending|Pending|Pending|Pending|Pending|Pending|Pending|Pending|Pending|Pending|Pending|Pending|Pending|Pending|Pending|Pending|Pending|Pending|Pending|Pending|Pending|Pending|Pending|Pending|Pending|Pending|Pending|Pending|Pending|Pending|Pending|Pending|Pending|Pending|Pending|Pending|Pending|Pending
Study14567|69ef7edc-e661-483b-a64a-bedbb18ddc05|d6c78c50-976d-4382-b6c4-f0d47d73533e|Site_03|COUNTRY|ETHNIC|83|Years|AAGE|Years|M|WHITE|ITTFL|SAFFL|PPROTFL|TRT01P|TRT01A|TRTSDTM|TRTSDT|TRTEDTM|TRTEDT|Pending|44|Group_03|b6f438f3-a70e-402c-af3a-1e2d625973f4|AETERM|AEMODIFY|AELLT|AELLTCD|Pending|Pending|Pending|Pending|Pending|Pending|Pending|Pending|Pending|Pending|Pending|Pending|Pending|Pending|Pending|Pending|Pending|Pending|Pending|Pending|Pending|Pending|Pending|Pending|Pending|Pending|Pending|Pending|Pending|Pending|Pending|Pending|Pending|Pending|Pending|Pending|Pending|Pending|Pending|Pending|Pending|Pending|Pending|Pending|Pending|Pending|Pending|Pending|Pending|Pending|Pending|Pending|Pending|Pending|Pending|Pending|Pending|Pending|Pending|Pending|Pending|Pending|Pending|Pending|Pending|Pending|Pending|Pending|Pending|Pending
Study14567|0244cde0-e2af-4a06-95b5-6a9d94c4d24a|7d2bfcfd-bcd6-4829-a572-4dfeb1890782|Site_03|COUNTRY|ETHNIC|80|Years|AAGE|Years|F|WHITE|ITTFL|SAFFL|PPROTFL|TRT01P|TRT01A|TRTSDTM|TRTSDT|TRTEDTM|TRTEDT|Pending|45|Group_02|84298945-931a-4b1f-a20e-cb6ead5b88fe|AETERM|AEMODIFY|AELLT|AELLTCD|Pending|Pending|Pending|Pending|Pending|Pending|Pending|Pending|Pending|Pending|Pending|Pending|Pending|Pending|Pending|Pending|Pending|Pending|Pending|Pending|Pending|Pending|Pending|Pending|Pending|Pending|Pending|Pending|Pending|Pending|Pending|Pending|Pending|Pending|Pending|Pending|Pending|Pending|Pending|Pending|Pending|Pending|Pending|Pending|Pending|Pending|Pending|Pending|Pending|Pending|Pending|Pending|Pending|Pending|Pending|Pending|Pending|Pending|Pending|Pending|Pending|Pending|Pending|Pending|Pending|Pending|Pending|Pending|Pending|Pending
Study14567|ab413a4b-deb8-405e-8ccd-6ecddf8cee4c|7d31b450-46e3-44d5-89b0-346acfbee140|Site_03|COUNTRY|ETHNIC|56|Years|AAGE|Years|F|WHITE|ITTFL|SAFFL|PPROTFL|TRT01P|TRT01A|TRTSDTM|TRTSDT|TRTEDTM|TRTEDT|Pending|46|Group_03|ab60cb2a-42bb-473a-a5ca-b53e7bb78229|AETERM|AEMODIFY|AELLT|AELLTCD|Pending|Pending|Pending|Pending|Pending|Pending|Pending|Pending|Pending|Pending|Pending|Pending|Pending|Pending|Pending|Pending|Pending|Pending|Pending|Pending|Pending|Pending|Pending|Pending|Pending|Pending|Pending|Pending|Pending|Pending|Pending|Pending|Pending|Pending|Pending|Pending|Pending|Pending|Pending|Pending|Pending|Pending|Pending|Pending|Pending|Pending|Pending|Pending|Pending|Pending|Pending|Pending|Pending|Pending|Pending|Pending|Pending|Pending|Pending|Pending|Pending|Pending|Pending|Pending|Pending|Pending|Pending|Pending|Pending|Pending
Study14567|5e0abf12-82ce-4321-ba4a-44c1ac498116|6f4ac551-7084-487d-adea-ce1dcde0329f|Site_03|COUNTRY|ETHNIC|82|Years|AAGE|Years|F|BLACK OR AFRICAN AMERICAN|ITTFL|SAFFL|PPROTFL|TRT01P|TRT01A|TRTSDTM|TRTSDT|TRTEDTM|TRTEDT|Pending|47|Group_01|0a374b52-92c0-42af-95ef-f06a23db8cb1|AETERM|AEMODIFY|AELLT|AELLTCD|Pending|Pending|Pending|Pending|Pending|Pending|Pending|Pending|Pending|Pending|Pending|Pending|Pending|Pending|Pending|Pending|Pending|Pending|Pending|Pending|Pending|Pending|Pending|Pending|Pending|Pending|Pending|Pending|Pending|Pending|Pending|Pending|Pending|Pending|Pending|Pending|Pending|Pending|Pending|Pending|Pending|Pending|Pending|Pending|Pending|Pending|Pending|Pending|Pending|Pending|Pending|Pending|Pending|Pending|Pending|Pending|Pending|Pending|Pending|Pending|Pending|Pending|Pending|Pending|Pending|Pending|Pending|Pending|Pending|Pending
Study14567|6051ec12-eaee-4ba5-8796-59052cd2ef74|a8fe2aed-4252-4800-8288-96a2685b02d4|Site_04|COUNTRY|ETHNIC|46|Years|AAGE|Years|M|WHITE|ITTFL|SAFFL|PPROTFL|TRT01P|TRT01A|TRTSDTM|TRTSDT|TRTEDTM|TRTEDT|Pending|48|Group_01|a7fcff93-7840-4345-9feb-6170703938aa|AETERM|AEMODIFY|AELLT|AELLTCD|Pending|Pending|Pending|Pending|Pending|Pending|Pending|Pending|Pending|Pending|Pending|Pending|Pending|Pending|Pending|Pending|Pending|Pending|Pending|Pending|Pending|Pending|Pending|Pending|Pending|Pending|Pending|Pending|Pending|Pending|Pending|Pending|Pending|Pending|Pending|Pending|Pending|Pending|Pending|Pending|Pending|Pending|Pending|Pending|Pending|Pending|Pending|Pending|Pending|Pending|Pending|Pending|Pending|Pending|Pending|Pending|Pending|Pending|Pending|Pending|Pending|Pending|Pending|Pending|Pending|Pending|Pending|Pending|Pending|Pending
Study14567|4d780a1b-b6d2-4052-95ab-bba5926dc238|250b7ef5-06cb-4ea8-8721-fe63c37b623e|Site_01|COUNTRY|ETHNIC|70|Years|AAGE|Years|M|WHITE|ITTFL|SAFFL|PPROTFL|TRT01P|TRT01A|TRTSDTM|TRTSDT|TRTEDTM|TRTEDT|Pending|49|Group_02|3e2f30a5-2fc2-472d-8e71-7b081e771db8|AETERM|AEMODIFY|AELLT|AELLTCD|Pending|Pending|Pending|Pending|Pending|Pending|Pending|Pending|Pending|Pending|Pending|Pending|Pending|Pending|Pending|Pending|Pending|Pending|Pending|Pending|Pending|Pending|Pending|Pending|Pending|Pending|Pending|Pending|Pending|Pending|Pending|Pending|Pending|Pending|Pending|Pending|Pending|Pending|Pending|Pending|Pending|Pending|Pending|Pending|Pending|Pending|Pending|Pending|Pending|Pending|Pending|Pending|Pending|Pending|Pending|Pending|Pending|Pending|Pending|Pending|Pending|Pending|Pending|Pending|Pending|Pending|Pending|Pending|Pending|Pending
Study14567|041d6af2-59ed-4110-9497-13e0c3eb37de|a0838951-75d1-4d7e-9ad8-0d7d913d932d|Site_03|COUNTRY|ETHNIC|80|Years|AAGE|Years|M|WHITE|ITTFL|SAFFL|PPROTFL|TRT01P|TRT01A|TRTSDTM|TRTSDT|TRTEDTM|TRTEDT|Pending|50|Group_02|57c5be5c-4a8e-433c-9f7e-839f6592c3f3|AETERM|AEMODIFY|AELLT|AELLTCD|Pending|Pending|Pending|Pending|Pending|Pending|Pending|Pending|Pending|Pending|Pending|Pending|Pending|Pending|Pending|Pending|Pending|Pending|Pending|Pending|Pending|Pending|Pending|Pending|Pending|Pending|Pending|Pending|Pending|Pending|Pending|Pending|Pending|Pending|Pending|Pending|Pending|Pending|Pending|Pending|Pending|Pending|Pending|Pending|Pending|Pending|Pending|Pending|Pending|Pending|Pending|Pending|Pending|Pending|Pending|Pending|Pending|Pending|Pending|Pending|Pending|Pending|Pending|Pending|Pending|Pending|Pending|Pending|Pending|Pending
Study14567|7dcb42c9-73c8-41af-86b4-cb265413ee07|da89add8-c83f-49f5-a0ea-bc4da5f689e7|Site_03|COUNTRY|ETHNIC|36|Years|AAGE|Years|F|AMERICAN INDIAN OR ALASKA NATIVE|ITTFL|SAFFL|PPROTFL|TRT01P|TRT01A|TRTSDTM|TRTSDT|TRTEDTM|TRTEDT|Pending|51|Group_04|654e8ea0-c127-4348-8fd5-9dca6ae84d91|AETERM|AEMODIFY|AELLT|AELLTCD|Pending|Pending|Pending|Pending|Pending|Pending|Pending|Pending|Pending|Pending|Pending|Pending|Pending|Pending|Pending|Pending|Pending|Pending|Pending|Pending|Pending|Pending|Pending|Pending|Pending|Pending|Pending|Pending|Pending|Pending|Pending|Pending|Pending|Pending|Pending|Pending|Pending|Pending|Pending|Pending|Pending|Pending|Pending|Pending|Pending|Pending|Pending|Pending|Pending|Pending|Pending|Pending|Pending|Pending|Pending|Pending|Pending|Pending|Pending|Pending|Pending|Pending|Pending|Pending|Pending|Pending|Pending|Pending|Pending|Pending
Study14567|77be32f9-e8f9-4a50-979d-d51cc5449396|70c7b794-2a97-42a2-9f54-a40f8a399acf|Site_03|COUNTRY|ETHNIC|65|Years|AAGE|Years|F|WHITE|ITTFL|SAFFL|PPROTFL|TRT01P|TRT01A|TRTSDTM|TRTSDT|TRTEDTM|TRTEDT|Pending|52|Group_03|18015867-e5c1-48b7-b826-1cf10ebb3f2e|AETERM|AEMODIFY|AELLT|AELLTCD|Pending|Pending|Pending|Pending|Pending|Pending|Pending|Pending|Pending|Pending|Pending|Pending|Pending|Pending|Pending|Pending|Pending|Pending|Pending|Pending|Pending|Pending|Pending|Pending|Pending|Pending|Pending|Pending|Pending|Pending|Pending|Pending|Pending|Pending|Pending|Pending|Pending|Pending|Pending|Pending|Pending|Pending|Pending|Pending|Pending|Pending|Pending|Pending|Pending|Pending|Pending|Pending|Pending|Pending|Pending|Pending|Pending|Pending|Pending|Pending|Pending|Pending|Pending|Pending|Pending|Pending|Pending|Pending|Pending|Pending
Study14567|3e5f3724-772c-4228-9f73-f01c9643d8d4|4a26348f-0aa4-4a4a-8e7e-61150d27bd7e|Site_03|COUNTRY|ETHNIC|56|Years|AAGE|Years|M|WHITE|ITTFL|SAFFL|PPROTFL|TRT01P|TRT01A|TRTSDTM|TRTSDT|TRTEDTM|TRTEDT|Pending|53|Group_03|6316c4e2-55f0-42b3-9b8d-7f513183e8c5|AETERM|AEMODIFY|AELLT|AELLTCD|Pending|Pending|Pending|Pending|Pending|Pending|Pending|Pending|Pending|Pending|Pending|Pending|Pending|Pending|Pending|Pending|Pending|Pending|Pending|Pending|Pending|Pending|Pending|Pending|Pending|Pending|Pending|Pending|Pending|Pending|Pending|Pending|Pending|Pending|Pending|Pending|Pending|Pending|Pending|Pending|Pending|Pending|Pending|Pending|Pending|Pending|Pending|Pending|Pending|Pending|Pending|Pending|Pending|Pending|Pending|Pending|Pending|Pending|Pending|Pending|Pending|Pending|Pending|Pending|Pending|Pending|Pending|Pending|Pending|Pending
Study14567|f6e7aef4-a9bb-44bb-8fd4-313cb7a5c3c7|e71df226-29d2-4bbb-a4b2-ec2b37fb0154|Site_02|COUNTRY|ETHNIC|40|Years|AAGE|Years|M|NATIVE HAWAIIAN OR OTHER PACIFIC ISLANDER|ITTFL|SAFFL|PPROTFL|TRT01P|TRT01A|TRTSDTM|TRTSDT|TRTEDTM|TRTEDT|Pending|54|Group_04|7f52f4ec-d157-4b21-b316-03cbae1752ed|AETERM|AEMODIFY|AELLT|AELLTCD|Pending|Pending|Pending|Pending|Pending|Pending|Pending|Pending|Pending|Pending|Pending|Pending|Pending|Pending|Pending|Pending|Pending|Pending|Pending|Pending|Pending|Pending|Pending|Pending|Pending|Pending|Pending|Pending|Pending|Pending|Pending|Pending|Pending|Pending|Pending|Pending|Pending|Pending|Pending|Pending|Pending|Pending|Pending|Pending|Pending|Pending|Pending|Pending|Pending|Pending|Pending|Pending|Pending|Pending|Pending|Pending|Pending|Pending|Pending|Pending|Pending|Pending|Pending|Pending|Pending|Pending|Pending|Pending|Pending|Pending
Study14567|a0c959d5-6bea-4e5d-92ae-f90566e49b3b|c2ba68cd-77df-4f4b-8e0d-eb3145db8ff0|Site_03|COUNTRY|ETHNIC|49|Years|AAGE|Years|F|NATIVE HAWAIIAN OR OTHER PACIFIC ISLANDER|ITTFL|SAFFL|PPROTFL|TRT01P|TRT01A|TRTSDTM|TRTSDT|TRTEDTM|TRTEDT|Pending|55|Group_02|d8331b73-249d-40b7-8ca0-05c46de060e8|AETERM|AEMODIFY|AELLT|AELLTCD|Pending|Pending|Pending|Pending|Pending|Pending|Pending|Pending|Pending|Pending|Pending|Pending|Pending|Pending|Pending|Pending|Pending|Pending|Pending|Pending|Pending|Pending|Pending|Pending|Pending|Pending|Pending|Pending|Pending|Pending|Pending|Pending|Pending|Pending|Pending|Pending|Pending|Pending|Pending|Pending|Pending|Pending|Pending|Pending|Pending|Pending|Pending|Pending|Pending|Pending|Pending|Pending|Pending|Pending|Pending|Pending|Pending|Pending|Pending|Pending|Pending|Pending|Pending|Pending|Pending|Pending|Pending|Pending|Pending|Pending
Study14567|855c560c-69fa-408d-8cd5-be3813a43c0c|33055ebc-b115-43cf-8ede-d91e147d5392|Site_03|COUNTRY|ETHNIC|51|Years|AAGE|Years|M|BLACK OR AFRICAN AMERICAN|ITTFL|SAFFL|PPROTFL|TRT01P|TRT01A|TRTSDTM|TRTSDT|TRTEDTM|TRTEDT|Pending|56|Group_04|f6bb7a19-6ffa-4356-8c64-a0cefdb303b8|AETERM|AEMODIFY|AELLT|AELLTCD|Pending|Pending|Pending|Pending|Pending|Pending|Pending|Pending|Pending|Pending|Pending|Pending|Pending|Pending|Pending|Pending|Pending|Pending|Pending|Pending|Pending|Pending|Pending|Pending|Pending|Pending|Pending|Pending|Pending|Pending|Pending|Pending|Pending|Pending|Pending|Pending|Pending|Pending|Pending|Pending|Pending|Pending|Pending|Pending|Pending|Pending|Pending|Pending|Pending|Pending|Pending|Pending|Pending|Pending|Pending|Pending|Pending|Pending|Pending|Pending|Pending|Pending|Pending|Pending|Pending|Pending|Pending|Pending|Pending|Pending
Study14567|870aa72f-0cf7-40ed-8e40-f596788860a5|c2324524-a553-4bb5-9a7b-6bd776d46d01|Site_03|COUNTRY|ETHNIC|45|Years|AAGE|Years|F|WHITE|ITTFL|SAFFL|PPROTFL|TRT01P|TRT01A|TRTSDTM|TRTSDT|TRTEDTM|TRTEDT|Pending|57|Group_03|4eac5630-90f5-45c6-9741-c0df01218589|AETERM|AEMODIFY|AELLT|AELLTCD|Pending|Pending|Pending|Pending|Pending|Pending|Pending|Pending|Pending|Pending|Pending|Pending|Pending|Pending|Pending|Pending|Pending|Pending|Pending|Pending|Pending|Pending|Pending|Pending|Pending|Pending|Pending|Pending|Pending|Pending|Pending|Pending|Pending|Pending|Pending|Pending|Pending|Pending|Pending|Pending|Pending|Pending|Pending|Pending|Pending|Pending|Pending|Pending|Pending|Pending|Pending|Pending|Pending|Pending|Pending|Pending|Pending|Pending|Pending|Pending|Pending|Pending|Pending|Pending|Pending|Pending|Pending|Pending|Pending|Pending
Study14567|0d39147f-c669-40c2-90dd-0eed42fb154d|79283e1e-55e1-4809-90b7-a4780c58bb5c|Site_02|COUNTRY|ETHNIC|30|Years|AAGE|Years|F|WHITE|ITTFL|SAFFL|PPROTFL|TRT01P|TRT01A|TRTSDTM|TRTSDT|TRTEDTM|TRTEDT|Pending|58|Group_03|12d85e30-c4c5-4452-b6b8-ae4e949d3d43|AETERM|AEMODIFY|AELLT|AELLTCD|Pending|Pending|Pending|Pending|Pending|Pending|Pending|Pending|Pending|Pending|Pending|Pending|Pending|Pending|Pending|Pending|Pending|Pending|Pending|Pending|Pending|Pending|Pending|Pending|Pending|Pending|Pending|Pending|Pending|Pending|Pending|Pending|Pending|Pending|Pending|Pending|Pending|Pending|Pending|Pending|Pending|Pending|Pending|Pending|Pending|Pending|Pending|Pending|Pending|Pending|Pending|Pending|Pending|Pending|Pending|Pending|Pending|Pending|Pending|Pending|Pending|Pending|Pending|Pending|Pending|Pending|Pending|Pending|Pending|Pending
Study14567|05809cd9-50ab-4669-af7b-9ce5f3945229|50a7f4be-76ad-4b95-ac96-9eb00d54b4a9|Site_03|COUNTRY|ETHNIC|70|Years|AAGE|Years|M|WHITE|ITTFL|SAFFL|PPROTFL|TRT01P|TRT01A|TRTSDTM|TRTSDT|TRTEDTM|TRTEDT|Pending|59|Group_03|facd380e-a63e-4fdf-b375-2a2f846c784f|AETERM|AEMODIFY|AELLT|AELLTCD|Pending|Pending|Pending|Pending|Pending|Pending|Pending|Pending|Pending|Pending|Pending|Pending|Pending|Pending|Pending|Pending|Pending|Pending|Pending|Pending|Pending|Pending|Pending|Pending|Pending|Pending|Pending|Pending|Pending|Pending|Pending|Pending|Pending|Pending|Pending|Pending|Pending|Pending|Pending|Pending|Pending|Pending|Pending|Pending|Pending|Pending|Pending|Pending|Pending|Pending|Pending|Pending|Pending|Pending|Pending|Pending|Pending|Pending|Pending|Pending|Pending|Pending|Pending|Pending|Pending|Pending|Pending|Pending|Pending|Pending
Study14567|523635fb-8a34-4fc5-be62-9e122cfd7ac9|3dad12c0-54c0-4fb7-9a67-fc87c249b75f|Site_03|COUNTRY|ETHNIC|82|Years|AAGE|Years|M|BLACK OR AFRICAN AMERICAN|ITTFL|SAFFL|PPROTFL|TRT01P|TRT01A|TRTSDTM|TRTSDT|TRTEDTM|TRTEDT|Pending|60|Group_03|7d5f7c72-5c83-4fd1-93a2-6853806aafae|AETERM|AEMODIFY|AELLT|AELLTCD|Pending|Pending|Pending|Pending|Pending|Pending|Pending|Pending|Pending|Pending|Pending|Pending|Pending|Pending|Pending|Pending|Pending|Pending|Pending|Pending|Pending|Pending|Pending|Pending|Pending|Pending|Pending|Pending|Pending|Pending|Pending|Pending|Pending|Pending|Pending|Pending|Pending|Pending|Pending|Pending|Pending|Pending|Pending|Pending|Pending|Pending|Pending|Pending|Pending|Pending|Pending|Pending|Pending|Pending|Pending|Pending|Pending|Pending|Pending|Pending|Pending|Pending|Pending|Pending|Pending|Pending|Pending|Pending|Pending|Pending
Study14567|93a68da6-fa52-46b3-8f12-64ac71c441c3|621dab1d-9bbb-4de6-9144-50ad23b8156f|Site_03|COUNTRY|ETHNIC|36|Years|AAGE|Years|M|BLACK OR AFRICAN AMERICAN|ITTFL|SAFFL|PPROTFL|TRT01P|TRT01A|TRTSDTM|TRTSDT|TRTEDTM|TRTEDT|Pending|61|Group_03|7b0ab79e-6e4d-4dff-9137-b7d17e37ff28|AETERM|AEMODIFY|AELLT|AELLTCD|Pending|Pending|Pending|Pending|Pending|Pending|Pending|Pending|Pending|Pending|Pending|Pending|Pending|Pending|Pending|Pending|Pending|Pending|Pending|Pending|Pending|Pending|Pending|Pending|Pending|Pending|Pending|Pending|Pending|Pending|Pending|Pending|Pending|Pending|Pending|Pending|Pending|Pending|Pending|Pending|Pending|Pending|Pending|Pending|Pending|Pending|Pending|Pending|Pending|Pending|Pending|Pending|Pending|Pending|Pending|Pending|Pending|Pending|Pending|Pending|Pending|Pending|Pending|Pending|Pending|Pending|Pending|Pending|Pending|Pending
Study14567|09279adc-8aa3-4bd8-b0e2-c43523931223|f745c196-0f44-4633-8f80-358928de70ef|Site_03|COUNTRY|ETHNIC|55|Years|AAGE|Years|F|WHITE|ITTFL|SAFFL|PPROTFL|TRT01P|TRT01A|TRTSDTM|TRTSDT|TRTEDTM|TRTEDT|Pending|62|Group_03|48c20b69-5cbd-4ac6-8bf5-042f892b85ad|AETERM|AEMODIFY|AELLT|AELLTCD|Pending|Pending|Pending|Pending|Pending|Pending|Pending|Pending|Pending|Pending|Pending|Pending|Pending|Pending|Pending|Pending|Pending|Pending|Pending|Pending|Pending|Pending|Pending|Pending|Pending|Pending|Pending|Pending|Pending|Pending|Pending|Pending|Pending|Pending|Pending|Pending|Pending|Pending|Pending|Pending|Pending|Pending|Pending|Pending|Pending|Pending|Pending|Pending|Pending|Pending|Pending|Pending|Pending|Pending|Pending|Pending|Pending|Pending|Pending|Pending|Pending|Pending|Pending|Pending|Pending|Pending|Pending|Pending|Pending|Pending
Study14567|67699dd9-0b88-4fd4-8515-4e921a0870f4|10cf3147-924f-4e62-8e39-05d1f0ab1823|Site_03|COUNTRY|ETHNIC|53|Years|AAGE|Years|F|WHITE|ITTFL|SAFFL|PPROTFL|TRT01P|TRT01A|TRTSDTM|TRTSDT|TRTEDTM|TRTEDT|Pending|63|Group_03|65802b0a-84d6-46e3-8fff-4050cd3b8123|AETERM|AEMODIFY|AELLT|AELLTCD|Pending|Pending|Pending|Pending|Pending|Pending|Pending|Pending|Pending|Pending|Pending|Pending|Pending|Pending|Pending|Pending|Pending|Pending|Pending|Pending|Pending|Pending|Pending|Pending|Pending|Pending|Pending|Pending|Pending|Pending|Pending|Pending|Pending|Pending|Pending|Pending|Pending|Pending|Pending|Pending|Pending|Pending|Pending|Pending|Pending|Pending|Pending|Pending|Pending|Pending|Pending|Pending|Pending|Pending|Pending|Pending|Pending|Pending|Pending|Pending|Pending|Pending|Pending|Pending|Pending|Pending|Pending|Pending|Pending|Pending
Study14567|0c8ca114-80af-49c3-89bb-2c67489e8ae3|123e97ae-7faa-43ae-bb6a-8f305686540d|Site_01|COUNTRY|ETHNIC|32|Years|AAGE|Years|M|WHITE|ITTFL|SAFFL|PPROTFL|TRT01P|TRT01A|TRTSDTM|TRTSDT|TRTEDTM|TRTEDT|Pending|64|Group_01|21651d5e-def4-48c6-9e6d-657b011274e0|AETERM|AEMODIFY|AELLT|AELLTCD|Pending|Pending|Pending|Pending|Pending|Pending|Pending|Pending|Pending|Pending|Pending|Pending|Pending|Pending|Pending|Pending|Pending|Pending|Pending|Pending|Pending|Pending|Pending|Pending|Pending|Pending|Pending|Pending|Pending|Pending|Pending|Pending|Pending|Pending|Pending|Pending|Pending|Pending|Pending|Pending|Pending|Pending|Pending|Pending|Pending|Pending|Pending|Pending|Pending|Pending|Pending|Pending|Pending|Pending|Pending|Pending|Pending|Pending|Pending|Pending|Pending|Pending|Pending|Pending|Pending|Pending|Pending|Pending|Pending|Pending
Study14567|e297f0f7-c034-42c7-a998-8a53cec74d60|fc2b23fa-55e8-4d7c-9cd0-3f92cae735eb|Site_03|COUNTRY|ETHNIC|44|Years|AAGE|Years|M|BLACK OR AFRICAN AMERICAN|ITTFL|SAFFL|PPROTFL|TRT01P|TRT01A|TRTSDTM|TRTSDT|TRTEDTM|TRTEDT|Pending|65|Group_04|4063ba97-a6a4-4443-8b5b-b7be0a9d9880|AETERM|AEMODIFY|AELLT|AELLTCD|Pending|Pending|Pending|Pending|Pending|Pending|Pending|Pending|Pending|Pending|Pending|Pending|Pending|Pending|Pending|Pending|Pending|Pending|Pending|Pending|Pending|Pending|Pending|Pending|Pending|Pending|Pending|Pending|Pending|Pending|Pending|Pending|Pending|Pending|Pending|Pending|Pending|Pending|Pending|Pending|Pending|Pending|Pending|Pending|Pending|Pending|Pending|Pending|Pending|Pending|Pending|Pending|Pending|Pending|Pending|Pending|Pending|Pending|Pending|Pending|Pending|Pending|Pending|Pending|Pending|Pending|Pending|Pending|Pending|Pending
Study14567|72ad1ebd-6f76-4565-9f54-e127f2b93df6|52e31815-ac2a-401b-8c49-581a0ab15de4|Site_02|COUNTRY|ETHNIC|20|Years|AAGE|Years|M|BLACK OR AFRICAN AMERICAN|ITTFL|SAFFL|PPROTFL|TRT01P|TRT01A|TRTSDTM|TRTSDT|TRTEDTM|TRTEDT|Pending|66|Group_03|ddd8f98a-da97-42d3-9d1c-70b057018737|AETERM|AEMODIFY|AELLT|AELLTCD|Pending|Pending|Pending|Pending|Pending|Pending|Pending|Pending|Pending|Pending|Pending|Pending|Pending|Pending|Pending|Pending|Pending|Pending|Pending|Pending|Pending|Pending|Pending|Pending|Pending|Pending|Pending|Pending|Pending|Pending|Pending|Pending|Pending|Pending|Pending|Pending|Pending|Pending|Pending|Pending|Pending|Pending|Pending|Pending|Pending|Pending|Pending|Pending|Pending|Pending|Pending|Pending|Pending|Pending|Pending|Pending|Pending|Pending|Pending|Pending|Pending|Pending|Pending|Pending|Pending|Pending|Pending|Pending|Pending|Pending
Study14567|b9ee61e8-1b4c-49d2-aff2-20f5cfc7f464|475c038f-976b-4530-9f38-9fdd6f3ff049|Site_03|COUNTRY|ETHNIC|51|Years|AAGE|Years|F|ASIAN|ITTFL|SAFFL|PPROTFL|TRT01P|TRT01A|TRTSDTM|TRTSDT|TRTEDTM|TRTEDT|Pending|67|Group_04|a00f7bb1-0f7f-407d-aee2-4c03406423d3|AETERM|AEMODIFY|AELLT|AELLTCD|Pending|Pending|Pending|Pending|Pending|Pending|Pending|Pending|Pending|Pending|Pending|Pending|Pending|Pending|Pending|Pending|Pending|Pending|Pending|Pending|Pending|Pending|Pending|Pending|Pending|Pending|Pending|Pending|Pending|Pending|Pending|Pending|Pending|Pending|Pending|Pending|Pending|Pending|Pending|Pending|Pending|Pending|Pending|Pending|Pending|Pending|Pending|Pending|Pending|Pending|Pending|Pending|Pending|Pending|Pending|Pending|Pending|Pending|Pending|Pending|Pending|Pending|Pending|Pending|Pending|Pending|Pending|Pending|Pending|Pending
Study14567|a4ed80c7-9ff1-4c8d-b245-ee52e853845f|e7637653-742b-4a2a-ad88-a54a6c48410e|Site_01|COUNTRY|ETHNIC|37|Years|AAGE|Years|M|WHITE|ITTFL|SAFFL|PPROTFL|TRT01P|TRT01A|TRTSDTM|TRTSDT|TRTEDTM|TRTEDT|Pending|68|Group_03|4411c02f-f2fe-455d-a0a2-624373427d74|AETERM|AEMODIFY|AELLT|AELLTCD|Pending|Pending|Pending|Pending|Pending|Pending|Pending|Pending|Pending|Pending|Pending|Pending|Pending|Pending|Pending|Pending|Pending|Pending|Pending|Pending|Pending|Pending|Pending|Pending|Pending|Pending|Pending|Pending|Pending|Pending|Pending|Pending|Pending|Pending|Pending|Pending|Pending|Pending|Pending|Pending|Pending|Pending|Pending|Pending|Pending|Pending|Pending|Pending|Pending|Pending|Pending|Pending|Pending|Pending|Pending|Pending|Pending|Pending|Pending|Pending|Pending|Pending|Pending|Pending|Pending|Pending|Pending|Pending|Pending|Pending
Study14567|1bb22357-1f4d-4818-a4b9-2cdb9bc05951|eba7c242-e457-4bd4-9c67-a0edb0b06797|Site_03|COUNTRY|ETHNIC|69|Years|AAGE|Years|M|BLACK OR AFRICAN AMERICAN|ITTFL|SAFFL|PPROTFL|TRT01P|TRT01A|TRTSDTM|TRTSDT|TRTEDTM|TRTEDT|Pending|69|Group_01|440f4a29-227c-4ff3-b1de-b7fa1e8ab50f|AETERM|AEMODIFY|AELLT|AELLTCD|Pending|Pending|Pending|Pending|Pending|Pending|Pending|Pending|Pending|Pending|Pending|Pending|Pending|Pending|Pending|Pending|Pending|Pending|Pending|Pending|Pending|Pending|Pending|Pending|Pending|Pending|Pending|Pending|Pending|Pending|Pending|Pending|Pending|Pending|Pending|Pending|Pending|Pending|Pending|Pending|Pending|Pending|Pending|Pending|Pending|Pending|Pending|Pending|Pending|Pending|Pending|Pending|Pending|Pending|Pending|Pending|Pending|Pending|Pending|Pending|Pending|Pending|Pending|Pending|Pending|Pending|Pending|Pending|Pending|Pending
Study14567|58f02afd-fb33-4d85-b382-e1b0ead9e0fb|22cd5a87-cf6d-4006-bf8d-4117bcd7f8b2|Site_04|COUNTRY|ETHNIC|59|Years|AAGE|Years|M|WHITE|ITTFL|SAFFL|PPROTFL|TRT01P|TRT01A|TRTSDTM|TRTSDT|TRTEDTM|TRTEDT|Pending|70|Group_02|8e5e78e2-d1d8-4191-9458-607a368031a8|AETERM|AEMODIFY|AELLT|AELLTCD|Pending|Pending|Pending|Pending|Pending|Pending|Pending|Pending|Pending|Pending|Pending|Pending|Pending|Pending|Pending|Pending|Pending|Pending|Pending|Pending|Pending|Pending|Pending|Pending|Pending|Pending|Pending|Pending|Pending|Pending|Pending|Pending|Pending|Pending|Pending|Pending|Pending|Pending|Pending|Pending|Pending|Pending|Pending|Pending|Pending|Pending|Pending|Pending|Pending|Pending|Pending|Pending|Pending|Pending|Pending|Pending|Pending|Pending|Pending|Pending|Pending|Pending|Pending|Pending|Pending|Pending|Pending|Pending|Pending|Pending
Study14567|bed26b43-25b8-44ee-bc99-54d3244b222a|6e4ed62c-81be-4c2a-9bc9-c18701f4405f|Site_03|COUNTRY|ETHNIC|28|Years|AAGE|Years|M|WHITE|ITTFL|SAFFL|PPROTFL|TRT01P|TRT01A|TRTSDTM|TRTSDT|TRTEDTM|TRTEDT|Pending|71|Group_03|122e1068-7910-447e-989e-7c5bb8f83567|AETERM|AEMODIFY|AELLT|AELLTCD|Pending|Pending|Pending|Pending|Pending|Pending|Pending|Pending|Pending|Pending|Pending|Pending|Pending|Pending|Pending|Pending|Pending|Pending|Pending|Pending|Pending|Pending|Pending|Pending|Pending|Pending|Pending|Pending|Pending|Pending|Pending|Pending|Pending|Pending|Pending|Pending|Pending|Pending|Pending|Pending|Pending|Pending|Pending|Pending|Pending|Pending|Pending|Pending|Pending|Pending|Pending|Pending|Pending|Pending|Pending|Pending|Pending|Pending|Pending|Pending|Pending|Pending|Pending|Pending|Pending|Pending|Pending|Pending|Pending|Pending
Study14567|4f125b94-2954-4e61-8d7d-61229c6c8d26|b6c114b5-5e38-4fd7-90e9-d8464c48e978|Site_04|COUNTRY|ETHNIC|75|Years|AAGE|Years|F|WHITE|ITTFL|SAFFL|PPROTFL|TRT01P|TRT01A|TRTSDTM|TRTSDT|TRTEDTM|TRTEDT|Pending|72|Group_03|4abbdfb0-4f9f-44e2-b997-71e4d8c7bd0f|AETERM|AEMODIFY|AELLT|AELLTCD|Pending|Pending|Pending|Pending|Pending|Pending|Pending|Pending|Pending|Pending|Pending|Pending|Pending|Pending|Pending|Pending|Pending|Pending|Pending|Pending|Pending|Pending|Pending|Pending|Pending|Pending|Pending|Pending|Pending|Pending|Pending|Pending|Pending|Pending|Pending|Pending|Pending|Pending|Pending|Pending|Pending|Pending|Pending|Pending|Pending|Pending|Pending|Pending|Pending|Pending|Pending|Pending|Pending|Pending|Pending|Pending|Pending|Pending|Pending|Pending|Pending|Pending|Pending|Pending|Pending|Pending|Pending|Pending|Pending|Pending
Study14567|bd5eb60f-12de-4dee-b503-026a0117e352|59d2a5d5-fe02-49cd-9aea-d0eda1c69028|Site_04|COUNTRY|ETHNIC|71|Years|AAGE|Years|F|AMERICAN INDIAN OR ALASKA NATIVE|ITTFL|SAFFL|PPROTFL|TRT01P|TRT01A|TRTSDTM|TRTSDT|TRTEDTM|TRTEDT|Pending|73|Group_03|abe8e99e-929a-4fab-89bf-22af4386f319|AETERM|AEMODIFY|AELLT|AELLTCD|Pending|Pending|Pending|Pending|Pending|Pending|Pending|Pending|Pending|Pending|Pending|Pending|Pending|Pending|Pending|Pending|Pending|Pending|Pending|Pending|Pending|Pending|Pending|Pending|Pending|Pending|Pending|Pending|Pending|Pending|Pending|Pending|Pending|Pending|Pending|Pending|Pending|Pending|Pending|Pending|Pending|Pending|Pending|Pending|Pending|Pending|Pending|Pending|Pending|Pending|Pending|Pending|Pending|Pending|Pending|Pending|Pending|Pending|Pending|Pending|Pending|Pending|Pending|Pending|Pending|Pending|Pending|Pending|Pending|Pending
Study14567|6da5c204-9bec-4d5d-8f92-6fcab03fbfe8|239a0411-efc3-4c2d-9f83-46de86cec20b|Site_01|COUNTRY|ETHNIC|30|Years|AAGE|Years|F|ASIAN|ITTFL|SAFFL|PPROTFL|TRT01P|TRT01A|TRTSDTM|TRTSDT|TRTEDTM|TRTEDT|Pending|74|Group_03|792e2512-2ec4-4576-a6b5-434f052e41b7|AETERM|AEMODIFY|AELLT|AELLTCD|Pending|Pending|Pending|Pending|Pending|Pending|Pending|Pending|Pending|Pending|Pending|Pending|Pending|Pending|Pending|Pending|Pending|Pending|Pending|Pending|Pending|Pending|Pending|Pending|Pending|Pending|Pending|Pending|Pending|Pending|Pending|Pending|Pending|Pending|Pending|Pending|Pending|Pending|Pending|Pending|Pending|Pending|Pending|Pending|Pending|Pending|Pending|Pending|Pending|Pending|Pending|Pending|Pending|Pending|Pending|Pending|Pending|Pending|Pending|Pending|Pending|Pending|Pending|Pending|Pending|Pending|Pending|Pending|Pending|Pending
Study14567|b471b4ff-9cad-4856-8966-be2fc611da1c|d279a3b2-c12d-4f90-a1b9-5c4aeffdadf7|Site_03|COUNTRY|ETHNIC|58|Years|AAGE|Years|M|NATIVE HAWAIIAN OR OTHER PACIFIC ISLANDER|ITTFL|SAFFL|PPROTFL|TRT01P|TRT01A|TRTSDTM|TRTSDT|TRTEDTM|TRTEDT|Pending|75|Group_03|344927c6-76a3-495c-8042-44701703084c|AETERM|AEMODIFY|AELLT|AELLTCD|Pending|Pending|Pending|Pending|Pending|Pending|Pending|Pending|Pending|Pending|Pending|Pending|Pending|Pending|Pending|Pending|Pending|Pending|Pending|Pending|Pending|Pending|Pending|Pending|Pending|Pending|Pending|Pending|Pending|Pending|Pending|Pending|Pending|Pending|Pending|Pending|Pending|Pending|Pending|Pending|Pending|Pending|Pending|Pending|Pending|Pending|Pending|Pending|Pending|Pending|Pending|Pending|Pending|Pending|Pending|Pending|Pending|Pending|Pending|Pending|Pending|Pending|Pending|Pending|Pending|Pending|Pending|Pending|Pending|Pending
Study14567|3d9a273f-ec5f-48b0-97b1-55d070a13077|f4105489-52e5-40ce-9d01-6a168c5d0548|Site_03|COUNTRY|ETHNIC|51|Years|AAGE|Years|M|WHITE|ITTFL|SAFFL|PPROTFL|TRT01P|TRT01A|TRTSDTM|TRTSDT|TRTEDTM|TRTEDT|Pending|76|Group_01|8dd8da64-552a-42ea-856f-2f8917323f38|AETERM|AEMODIFY|AELLT|AELLTCD|Pending|Pending|Pending|Pending|Pending|Pending|Pending|Pending|Pending|Pending|Pending|Pending|Pending|Pending|Pending|Pending|Pending|Pending|Pending|Pending|Pending|Pending|Pending|Pending|Pending|Pending|Pending|Pending|Pending|Pending|Pending|Pending|Pending|Pending|Pending|Pending|Pending|Pending|Pending|Pending|Pending|Pending|Pending|Pending|Pending|Pending|Pending|Pending|Pending|Pending|Pending|Pending|Pending|Pending|Pending|Pending|Pending|Pending|Pending|Pending|Pending|Pending|Pending|Pending|Pending|Pending|Pending|Pending|Pending|Pending
Study14567|7e21c6c2-33ba-4bf3-8339-8648250e0e67|83daab8e-a91d-4b0b-8ccb-86421fbf8638|Site_03|COUNTRY|ETHNIC|23|Years|AAGE|Years|F|WHITE|ITTFL|SAFFL|PPROTFL|TRT01P|TRT01A|TRTSDTM|TRTSDT|TRTEDTM|TRTEDT|Pending|77|Group_03|9365efb6-2bf0-4351-8b11-acc9280809f8|AETERM|AEMODIFY|AELLT|AELLTCD|Pending|Pending|Pending|Pending|Pending|Pending|Pending|Pending|Pending|Pending|Pending|Pending|Pending|Pending|Pending|Pending|Pending|Pending|Pending|Pending|Pending|Pending|Pending|Pending|Pending|Pending|Pending|Pending|Pending|Pending|Pending|Pending|Pending|Pending|Pending|Pending|Pending|Pending|Pending|Pending|Pending|Pending|Pending|Pending|Pending|Pending|Pending|Pending|Pending|Pending|Pending|Pending|Pending|Pending|Pending|Pending|Pending|Pending|Pending|Pending|Pending|Pending|Pending|Pending|Pending|Pending|Pending|Pending|Pending|Pending
Study14567|7a35306b-57e5-4b23-8fae-fd47c451fcf0|b5dd54c3-0ad6-4c10-b89a-6666bb52aaf4|Site_04|COUNTRY|ETHNIC|66|Years|AAGE|Years|M|BLACK OR AFRICAN AMERICAN|ITTFL|SAFFL|PPROTFL|TRT01P|TRT01A|TRTSDTM|TRTSDT|TRTEDTM|TRTEDT|Pending|78|Group_03|447dd2dd-34d7-4636-bf0c-ae2e01118cdc|AETERM|AEMODIFY|AELLT|AELLTCD|Pending|Pending|Pending|Pending|Pending|Pending|Pending|Pending|Pending|Pending|Pending|Pending|Pending|Pending|Pending|Pending|Pending|Pending|Pending|Pending|Pending|Pending|Pending|Pending|Pending|Pending|Pending|Pending|Pending|Pending|Pending|Pending|Pending|Pending|Pending|Pending|Pending|Pending|Pending|Pending|Pending|Pending|Pending|Pending|Pending|Pending|Pending|Pending|Pending|Pending|Pending|Pending|Pending|Pending|Pending|Pending|Pending|Pending|Pending|Pending|Pending|Pending|Pending|Pending|Pending|Pending|Pending|Pending|Pending|Pending
Study14567|c00b9dca-a509-453f-bfbd-d1d437e46890|9b10002a-e5c1-455b-af4a-a3e4586e984a|Site_03|COUNTRY|ETHNIC|58|Years|AAGE|Years|F|WHITE|ITTFL|SAFFL|PPROTFL|TRT01P|TRT01A|TRTSDTM|TRTSDT|TRTEDTM|TRTEDT|Pending|79|Group_03|2322a177-fdc0-4177-9c79-6f74a207a270|AETERM|AEMODIFY|AELLT|AELLTCD|Pending|Pending|Pending|Pending|Pending|Pending|Pending|Pending|Pending|Pending|Pending|Pending|Pending|Pending|Pending|Pending|Pending|Pending|Pending|Pending|Pending|Pending|Pending|Pending|Pending|Pending|Pending|Pending|Pending|Pending|Pending|Pending|Pending|Pending|Pending|Pending|Pending|Pending|Pending|Pending|Pending|Pending|Pending|Pending|Pending|Pending|Pending|Pending|Pending|Pending|Pending|Pending|Pending|Pending|Pending|Pending|Pending|Pending|Pending|Pending|Pending|Pending|Pending|Pending|Pending|Pending|Pending|Pending|Pending|Pending
Study14567|effdbf39-4eaa-4eeb-9bdd-d2176e32cb7c|ce694d5d-55c7-4e06-8447-c1540df153a5|Site_03|COUNTRY|ETHNIC|46|Years|AAGE|Years|M|ASIAN|ITTFL|SAFFL|PPROTFL|TRT01P|TRT01A|TRTSDTM|TRTSDT|TRTEDTM|TRTEDT|Pending|80|Group_02|5888705d-d2b8-434b-9bbb-290d354daecf|AETERM|AEMODIFY|AELLT|AELLTCD|Pending|Pending|Pending|Pending|Pending|Pending|Pending|Pending|Pending|Pending|Pending|Pending|Pending|Pending|Pending|Pending|Pending|Pending|Pending|Pending|Pending|Pending|Pending|Pending|Pending|Pending|Pending|Pending|Pending|Pending|Pending|Pending|Pending|Pending|Pending|Pending|Pending|Pending|Pending|Pending|Pending|Pending|Pending|Pending|Pending|Pending|Pending|Pending|Pending|Pending|Pending|Pending|Pending|Pending|Pending|Pending|Pending|Pending|Pending|Pending|Pending|Pending|Pending|Pending|Pending|Pending|Pending|Pending|Pending|Pending
Study14567|c71df16e-bd24-46db-ae32-72c2176de35e|3bf41ecb-9bb1-48e7-85ba-da39942fa69d|Site_03|COUNTRY|ETHNIC|42|Years|AAGE|Years|F|WHITE|ITTFL|SAFFL|PPROTFL|TRT01P|TRT01A|TRTSDTM|TRTSDT|TRTEDTM|TRTEDT|Pending|81|Group_01|9a0f3103-6b32-437a-abc0-241ba76959d2|AETERM|AEMODIFY|AELLT|AELLTCD|Pending|Pending|Pending|Pending|Pending|Pending|Pending|Pending|Pending|Pending|Pending|Pending|Pending|Pending|Pending|Pending|Pending|Pending|Pending|Pending|Pending|Pending|Pending|Pending|Pending|Pending|Pending|Pending|Pending|Pending|Pending|Pending|Pending|Pending|Pending|Pending|Pending|Pending|Pending|Pending|Pending|Pending|Pending|Pending|Pending|Pending|Pending|Pending|Pending|Pending|Pending|Pending|Pending|Pending|Pending|Pending|Pending|Pending|Pending|Pending|Pending|Pending|Pending|Pending|Pending|Pending|Pending|Pending|Pending|Pending
Study14567|c058b907-c4f5-4066-a996-470cc67b6678|f6c8fa18-4eae-4a13-bb7b-bdd52b590ce1|Site_02|COUNTRY|ETHNIC|74|Years|AAGE|Years|F|BLACK OR AFRICAN AMERICAN|ITTFL|SAFFL|PPROTFL|TRT01P|TRT01A|TRTSDTM|TRTSDT|TRTEDTM|TRTEDT|Pending|82|Group_04|cf5c6d83-d291-4f40-8259-2846ffa7b7ad|AETERM|AEMODIFY|AELLT|AELLTCD|Pending|Pending|Pending|Pending|Pending|Pending|Pending|Pending|Pending|Pending|Pending|Pending|Pending|Pending|Pending|Pending|Pending|Pending|Pending|Pending|Pending|Pending|Pending|Pending|Pending|Pending|Pending|Pending|Pending|Pending|Pending|Pending|Pending|Pending|Pending|Pending|Pending|Pending|Pending|Pending|Pending|Pending|Pending|Pending|Pending|Pending|Pending|Pending|Pending|Pending|Pending|Pending|Pending|Pending|Pending|Pending|Pending|Pending|Pending|Pending|Pending|Pending|Pending|Pending|Pending|Pending|Pending|Pending|Pending|Pending
Study14567|f62717a5-bf8f-4db4-94b5-333270816ce4|e1a650b4-6536-4029-b69e-1c8e10dbea99|Site_04|COUNTRY|ETHNIC|48|Years|AAGE|Years|F|BLACK OR AFRICAN AMERICAN|ITTFL|SAFFL|PPROTFL|TRT01P|TRT01A|TRTSDTM|TRTSDT|TRTEDTM|TRTEDT|Pending|83|Group_04|8c25debf-a745-4a84-b98e-1632a8292a2e|AETERM|AEMODIFY|AELLT|AELLTCD|Pending|Pending|Pending|Pending|Pending|Pending|Pending|Pending|Pending|Pending|Pending|Pending|Pending|Pending|Pending|Pending|Pending|Pending|Pending|Pending|Pending|Pending|Pending|Pending|Pending|Pending|Pending|Pending|Pending|Pending|Pending|Pending|Pending|Pending|Pending|Pending|Pending|Pending|Pending|Pending|Pending|Pending|Pending|Pending|Pending|Pending|Pending|Pending|Pending|Pending|Pending|Pending|Pending|Pending|Pending|Pending|Pending|Pending|Pending|Pending|Pending|Pending|Pending|Pending|Pending|Pending|Pending|Pending|Pending|Pending
Study14567|d08dca63-4c85-4ac8-b43e-b2788a980ec0|399e84cf-9786-40fd-bc48-e6c495cd6a49|Site_02|COUNTRY|ETHNIC|84|Years|AAGE|Years|F|WHITE|ITTFL|SAFFL|PPROTFL|TRT01P|TRT01A|TRTSDTM|TRTSDT|TRTEDTM|TRTEDT|Pending|84|Group_01|0ead2e01-378b-4dc0-83b0-b71fde875ed3|AETERM|AEMODIFY|AELLT|AELLTCD|Pending|Pending|Pending|Pending|Pending|Pending|Pending|Pending|Pending|Pending|Pending|Pending|Pending|Pending|Pending|Pending|Pending|Pending|Pending|Pending|Pending|Pending|Pending|Pending|Pending|Pending|Pending|Pending|Pending|Pending|Pending|Pending|Pending|Pending|Pending|Pending|Pending|Pending|Pending|Pending|Pending|Pending|Pending|Pending|Pending|Pending|Pending|Pending|Pending|Pending|Pending|Pending|Pending|Pending|Pending|Pending|Pending|Pending|Pending|Pending|Pending|Pending|Pending|Pending|Pending|Pending|Pending|Pending|Pending|Pending
Study14567|7bc7a2f0-a1d0-42ba-8c5a-e6232cf7937d|e164ffeb-86d6-4ba0-9ac7-f94fc6dc2108|Site_03|COUNTRY|ETHNIC|84|Years|AAGE|Years|F|WHITE|ITTFL|SAFFL|PPROTFL|TRT01P|TRT01A|TRTSDTM|TRTSDT|TRTEDTM|TRTEDT|Pending|85|Group_02|22826933-7db9-4651-9771-801bc56f8be7|AETERM|AEMODIFY|AELLT|AELLTCD|Pending|Pending|Pending|Pending|Pending|Pending|Pending|Pending|Pending|Pending|Pending|Pending|Pending|Pending|Pending|Pending|Pending|Pending|Pending|Pending|Pending|Pending|Pending|Pending|Pending|Pending|Pending|Pending|Pending|Pending|Pending|Pending|Pending|Pending|Pending|Pending|Pending|Pending|Pending|Pending|Pending|Pending|Pending|Pending|Pending|Pending|Pending|Pending|Pending|Pending|Pending|Pending|Pending|Pending|Pending|Pending|Pending|Pending|Pending|Pending|Pending|Pending|Pending|Pending|Pending|Pending|Pending|Pending|Pending|Pending
Study14567|0c37a908-26f5-4b5b-b4c9-870e708a5069|c2f52d96-00cc-4bb4-b434-913077974c60|Site_03|COUNTRY|ETHNIC|51|Years|AAGE|Years|F|BLACK OR AFRICAN AMERICAN|ITTFL|SAFFL|PPROTFL|TRT01P|TRT01A|TRTSDTM|TRTSDT|TRTEDTM|TRTEDT|Pending|86|Group_03|82b9aa9f-074e-4380-ab15-dfcb5c57495d|AETERM|AEMODIFY|AELLT|AELLTCD|Pending|Pending|Pending|Pending|Pending|Pending|Pending|Pending|Pending|Pending|Pending|Pending|Pending|Pending|Pending|Pending|Pending|Pending|Pending|Pending|Pending|Pending|Pending|Pending|Pending|Pending|Pending|Pending|Pending|Pending|Pending|Pending|Pending|Pending|Pending|Pending|Pending|Pending|Pending|Pending|Pending|Pending|Pending|Pending|Pending|Pending|Pending|Pending|Pending|Pending|Pending|Pending|Pending|Pending|Pending|Pending|Pending|Pending|Pending|Pending|Pending|Pending|Pending|Pending|Pending|Pending|Pending|Pending|Pending|Pending
Study14567|c0b4d86b-d433-4f7c-8974-1cc6fbf6c5fb|f5e82600-c9c7-433b-b9c5-7cb00223086e|Site_03|COUNTRY|ETHNIC|31|Years|AAGE|Years|F|ASIAN|ITTFL|SAFFL|PPROTFL|TRT01P|TRT01A|TRTSDTM|TRTSDT|TRTEDTM|TRTEDT|Pending|87|Group_02|8e90dd90-2369-4c87-93b3-8412a6adfcc0|AETERM|AEMODIFY|AELLT|AELLTCD|Pending|Pending|Pending|Pending|Pending|Pending|Pending|Pending|Pending|Pending|Pending|Pending|Pending|Pending|Pending|Pending|Pending|Pending|Pending|Pending|Pending|Pending|Pending|Pending|Pending|Pending|Pending|Pending|Pending|Pending|Pending|Pending|Pending|Pending|Pending|Pending|Pending|Pending|Pending|Pending|Pending|Pending|Pending|Pending|Pending|Pending|Pending|Pending|Pending|Pending|Pending|Pending|Pending|Pending|Pending|Pending|Pending|Pending|Pending|Pending|Pending|Pending|Pending|Pending|Pending|Pending|Pending|Pending|Pending|Pending
Study14567|91a6543c-f515-4840-825f-4cae0dd51cbe|54310ba9-ab26-4f91-938e-70e786547a5b|Site_03|COUNTRY|ETHNIC|55|Years|AAGE|Years|M|NATIVE HAWAIIAN OR OTHER PACIFIC ISLANDER|ITTFL|SAFFL|PPROTFL|TRT01P|TRT01A|TRTSDTM|TRTSDT|TRTEDTM|TRTEDT|Pending|88|Group_03|fbb4ce1b-6cdc-4d56-ae22-23a6f97361f0|AETERM|AEMODIFY|AELLT|AELLTCD|Pending|Pending|Pending|Pending|Pending|Pending|Pending|Pending|Pending|Pending|Pending|Pending|Pending|Pending|Pending|Pending|Pending|Pending|Pending|Pending|Pending|Pending|Pending|Pending|Pending|Pending|Pending|Pending|Pending|Pending|Pending|Pending|Pending|Pending|Pending|Pending|Pending|Pending|Pending|Pending|Pending|Pending|Pending|Pending|Pending|Pending|Pending|Pending|Pending|Pending|Pending|Pending|Pending|Pending|Pending|Pending|Pending|Pending|Pending|Pending|Pending|Pending|Pending|Pending|Pending|Pending|Pending|Pending|Pending|Pending
Study14567|028c4c81-1b14-44bb-b685-8092c67e7862|e047d5d2-c77e-4d72-92fe-18d4b62f743e|Site_01|COUNTRY|ETHNIC|84|Years|AAGE|Years|F|ASIAN|ITTFL|SAFFL|PPROTFL|TRT01P|TRT01A|TRTSDTM|TRTSDT|TRTEDTM|TRTEDT|Pending|89|Group_03|487af061-ba9d-444f-8c2e-e6313d7ca8c2|AETERM|AEMODIFY|AELLT|AELLTCD|Pending|Pending|Pending|Pending|Pending|Pending|Pending|Pending|Pending|Pending|Pending|Pending|Pending|Pending|Pending|Pending|Pending|Pending|Pending|Pending|Pending|Pending|Pending|Pending|Pending|Pending|Pending|Pending|Pending|Pending|Pending|Pending|Pending|Pending|Pending|Pending|Pending|Pending|Pending|Pending|Pending|Pending|Pending|Pending|Pending|Pending|Pending|Pending|Pending|Pending|Pending|Pending|Pending|Pending|Pending|Pending|Pending|Pending|Pending|Pending|Pending|Pending|Pending|Pending|Pending|Pending|Pending|Pending|Pending|Pending
Study14567|2d20e5ce-c3c1-404e-9f3f-3eb10cb18f56|62500313-71aa-460c-a3f6-ddefb74d5384|Site_04|COUNTRY|ETHNIC|76|Years|AAGE|Years|F|AMERICAN INDIAN OR ALASKA NATIVE|ITTFL|SAFFL|PPROTFL|TRT01P|TRT01A|TRTSDTM|TRTSDT|TRTEDTM|TRTEDT|Pending|90|Group_03|db52f72b-314e-4b9f-b809-899fcc908dc8|AETERM|AEMODIFY|AELLT|AELLTCD|Pending|Pending|Pending|Pending|Pending|Pending|Pending|Pending|Pending|Pending|Pending|Pending|Pending|Pending|Pending|Pending|Pending|Pending|Pending|Pending|Pending|Pending|Pending|Pending|Pending|Pending|Pending|Pending|Pending|Pending|Pending|Pending|Pending|Pending|Pending|Pending|Pending|Pending|Pending|Pending|Pending|Pending|Pending|Pending|Pending|Pending|Pending|Pending|Pending|Pending|Pending|Pending|Pending|Pending|Pending|Pending|Pending|Pending|Pending|Pending|Pending|Pending|Pending|Pending|Pending|Pending|Pending|Pending|Pending|Pending
Study14567|b1f61e9a-b196-49cf-955a-26f24fb8f9a5|1662802d-d9f1-4798-877c-feae85b1066e|Site_04|COUNTRY|ETHNIC|47|Years|AAGE|Years|M|WHITE|ITTFL|SAFFL|PPROTFL|TRT01P|TRT01A|TRTSDTM|TRTSDT|TRTEDTM|TRTEDT|Pending|91|Group_02|6e4a01a1-1dbf-4d8a-a1a9-4a4710e4e62b|AETERM|AEMODIFY|AELLT|AELLTCD|Pending|Pending|Pending|Pending|Pending|Pending|Pending|Pending|Pending|Pending|Pending|Pending|Pending|Pending|Pending|Pending|Pending|Pending|Pending|Pending|Pending|Pending|Pending|Pending|Pending|Pending|Pending|Pending|Pending|Pending|Pending|Pending|Pending|Pending|Pending|Pending|Pending|Pending|Pending|Pending|Pending|Pending|Pending|Pending|Pending|Pending|Pending|Pending|Pending|Pending|Pending|Pending|Pending|Pending|Pending|Pending|Pending|Pending|Pending|Pending|Pending|Pending|Pending|Pending|Pending|Pending|Pending|Pending|Pending|Pending
Study14567|5fac3f6d-6885-4957-893e-5a373b667b39|4d487a25-61f4-4482-86e9-21b216828941|Site_03|COUNTRY|ETHNIC|71|Years|AAGE|Years|M|WHITE|ITTFL|SAFFL|PPROTFL|TRT01P|TRT01A|TRTSDTM|TRTSDT|TRTEDTM|TRTEDT|Pending|92|Group_04|67ede78c-61da-4dde-a8ba-8cafc3fcfd63|AETERM|AEMODIFY|AELLT|AELLTCD|Pending|Pending|Pending|Pending|Pending|Pending|Pending|Pending|Pending|Pending|Pending|Pending|Pending|Pending|Pending|Pending|Pending|Pending|Pending|Pending|Pending|Pending|Pending|Pending|Pending|Pending|Pending|Pending|Pending|Pending|Pending|Pending|Pending|Pending|Pending|Pending|Pending|Pending|Pending|Pending|Pending|Pending|Pending|Pending|Pending|Pending|Pending|Pending|Pending|Pending|Pending|Pending|Pending|Pending|Pending|Pending|Pending|Pending|Pending|Pending|Pending|Pending|Pending|Pending|Pending|Pending|Pending|Pending|Pending|Pending
Study14567|8076d948-8f1d-4800-b68a-3b858438113f|600b49cf-e7c9-4cbb-a22f-2d9ccd9301ce|Site_03|COUNTRY|ETHNIC|33|Years|AAGE|Years|M|WHITE|ITTFL|SAFFL|PPROTFL|TRT01P|TRT01A|TRTSDTM|TRTSDT|TRTEDTM|TRTEDT|Pending|93|Group_02|5ce92a78-92d5-4530-9357-2edb65e4fbd6|AETERM|AEMODIFY|AELLT|AELLTCD|Pending|Pending|Pending|Pending|Pending|Pending|Pending|Pending|Pending|Pending|Pending|Pending|Pending|Pending|Pending|Pending|Pending|Pending|Pending|Pending|Pending|Pending|Pending|Pending|Pending|Pending|Pending|Pending|Pending|Pending|Pending|Pending|Pending|Pending|Pending|Pending|Pending|Pending|Pending|Pending|Pending|Pending|Pending|Pending|Pending|Pending|Pending|Pending|Pending|Pending|Pending|Pending|Pending|Pending|Pending|Pending|Pending|Pending|Pending|Pending|Pending|Pending|Pending|Pending|Pending|Pending|Pending|Pending|Pending|Pending
Study14567|4d1a6b54-57df-4fa0-bc23-850324a7d201|56e7440d-f7f3-4f88-965d-c90fe126dbca|Site_02|COUNTRY|ETHNIC|88|Years|AAGE|Years|M|AMERICAN INDIAN OR ALASKA NATIVE|ITTFL|SAFFL|PPROTFL|TRT01P|TRT01A|TRTSDTM|TRTSDT|TRTEDTM|TRTEDT|Pending|94|Group_03|dbc1bef2-34d1-430a-8409-21bf6dca4f4c|AETERM|AEMODIFY|AELLT|AELLTCD|Pending|Pending|Pending|Pending|Pending|Pending|Pending|Pending|Pending|Pending|Pending|Pending|Pending|Pending|Pending|Pending|Pending|Pending|Pending|Pending|Pending|Pending|Pending|Pending|Pending|Pending|Pending|Pending|Pending|Pending|Pending|Pending|Pending|Pending|Pending|Pending|Pending|Pending|Pending|Pending|Pending|Pending|Pending|Pending|Pending|Pending|Pending|Pending|Pending|Pending|Pending|Pending|Pending|Pending|Pending|Pending|Pending|Pending|Pending|Pending|Pending|Pending|Pending|Pending|Pending|Pending|Pending|Pending|Pending|Pending
Study14567|71fe26ff-c102-452e-9321-bd89f53719ea|e69ed50a-de8e-4139-9c6b-3e8d4bd004a2|Site_03|COUNTRY|ETHNIC|77|Years|AAGE|Years|M|WHITE|ITTFL|SAFFL|PPROTFL|TRT01P|TRT01A|TRTSDTM|TRTSDT|TRTEDTM|TRTEDT|Pending|95|Group_03|61d2f46e-74af-4af3-9c8f-d5a9da864929|AETERM|AEMODIFY|AELLT|AELLTCD|Pending|Pending|Pending|Pending|Pending|Pending|Pending|Pending|Pending|Pending|Pending|Pending|Pending|Pending|Pending|Pending|Pending|Pending|Pending|Pending|Pending|Pending|Pending|Pending|Pending|Pending|Pending|Pending|Pending|Pending|Pending|Pending|Pending|Pending|Pending|Pending|Pending|Pending|Pending|Pending|Pending|Pending|Pending|Pending|Pending|Pending|Pending|Pending|Pending|Pending|Pending|Pending|Pending|Pending|Pending|Pending|Pending|Pending|Pending|Pending|Pending|Pending|Pending|Pending|Pending|Pending|Pending|Pending|Pending|Pending
Study14567|6c880ec0-776f-40ea-8455-4577f710a3bc|824e8344-91c1-46ff-9d5b-8b724efa7567|Site_02|COUNTRY|ETHNIC|78|Years|AAGE|Years|F|WHITE|ITTFL|SAFFL|PPROTFL|TRT01P|TRT01A|TRTSDTM|TRTSDT|TRTEDTM|TRTEDT|Pending|96|Group_04|b828f3f7-2810-4030-bb16-9ec7e3ec7743|AETERM|AEMODIFY|AELLT|AELLTCD|Pending|Pending|Pending|Pending|Pending|Pending|Pending|Pending|Pending|Pending|Pending|Pending|Pending|Pending|Pending|Pending|Pending|Pending|Pending|Pending|Pending|Pending|Pending|Pending|Pending|Pending|Pending|Pending|Pending|Pending|Pending|Pending|Pending|Pending|Pending|Pending|Pending|Pending|Pending|Pending|Pending|Pending|Pending|Pending|Pending|Pending|Pending|Pending|Pending|Pending|Pending|Pending|Pending|Pending|Pending|Pending|Pending|Pending|Pending|Pending|Pending|Pending|Pending|Pending|Pending|Pending|Pending|Pending|Pending|Pending
Study14567|01b50847-1071-4c66-889c-b1adf80f8117|e05bea21-25b7-4786-9652-129f115f76be|Site_04|COUNTRY|ETHNIC|41|Years|AAGE|Years|F|WHITE|ITTFL|SAFFL|PPROTFL|TRT01P|TRT01A|TRTSDTM|TRTSDT|TRTEDTM|TRTEDT|Pending|97|Group_02|cb42dc9b-f942-485f-9e31-cb6104410e60|AETERM|AEMODIFY|AELLT|AELLTCD|Pending|Pending|Pending|Pending|Pending|Pending|Pending|Pending|Pending|Pending|Pending|Pending|Pending|Pending|Pending|Pending|Pending|Pending|Pending|Pending|Pending|Pending|Pending|Pending|Pending|Pending|Pending|Pending|Pending|Pending|Pending|Pending|Pending|Pending|Pending|Pending|Pending|Pending|Pending|Pending|Pending|Pending|Pending|Pending|Pending|Pending|Pending|Pending|Pending|Pending|Pending|Pending|Pending|Pending|Pending|Pending|Pending|Pending|Pending|Pending|Pending|Pending|Pending|Pending|Pending|Pending|Pending|Pending|Pending|Pending
Study14567|8a561544-c388-49a0-8fad-fc7799015fd9|8acd1b4a-e719-411c-988f-b49ca4efffc1|Site_01|COUNTRY|ETHNIC|25|Years|AAGE|Years|M|BLACK OR AFRICAN AMERICAN|ITTFL|SAFFL|PPROTFL|TRT01P|TRT01A|TRTSDTM|TRTSDT|TRTEDTM|TRTEDT|Pending|98|Group_03|52141054-2b03-409f-8e73-350f4ada6d72|AETERM|AEMODIFY|AELLT|AELLTCD|Pending|Pending|Pending|Pending|Pending|Pending|Pending|Pending|Pending|Pending|Pending|Pending|Pending|Pending|Pending|Pending|Pending|Pending|Pending|Pending|Pending|Pending|Pending|Pending|Pending|Pending|Pending|Pending|Pending|Pending|Pending|Pending|Pending|Pending|Pending|Pending|Pending|Pending|Pending|Pending|Pending|Pending|Pending|Pending|Pending|Pending|Pending|Pending|Pending|Pending|Pending|Pending|Pending|Pending|Pending|Pending|Pending|Pending|Pending|Pending|Pending|Pending|Pending|Pending|Pending|Pending|Pending|Pending|Pending|Pending
Study14567|b4219740-bb65-4097-9509-667bf57857ab|cfc3ff00-7bc4-483b-bed6-c80e648b992c|Site_03|COUNTRY|ETHNIC|57|Years|AAGE|Years|M|WHITE|ITTFL|SAFFL|PPROTFL|TRT01P|TRT01A|TRTSDTM|TRTSDT|TRTEDTM|TRTEDT|Pending|99|Group_04|9bc5335b-c362-46eb-9cf3-375b3144e612|AETERM|AEMODIFY|AELLT|AELLTCD|Pending|Pending|Pending|Pending|Pending|Pending|Pending|Pending|Pending|Pending|Pending|Pending|Pending|Pending|Pending|Pending|Pending|Pending|Pending|Pending|Pending|Pending|Pending|Pending|Pending|Pending|Pending|Pending|Pending|Pending|Pending|Pending|Pending|Pending|Pending|Pending|Pending|Pending|Pending|Pending|Pending|Pending|Pending|Pending|Pending|Pending|Pending|Pending|Pending|Pending|Pending|Pending|Pending|Pending|Pending|Pending|Pending|Pending|Pending|Pending|Pending|Pending|Pending|Pending|Pending|Pending|Pending|Pending|Pending|Pending
Study14567|22c24fe9-1df6-448c-ae29-1ee6eb9c8c53|a6a91038-b04a-4a37-adf4-08c44591c19e|Site_04|COUNTRY|ETHNIC|43|Years|AAGE|Years|M|BLACK OR AFRICAN AMERICAN|ITTFL|SAFFL|PPROTFL|TRT01P|TRT01A|TRTSDTM|TRTSDT|TRTEDTM|TRTEDT|Pending|100|Group_02|1e6744a5-4d20-4ed4-bff5-5d8d23fc8643|AETERM|AEMODIFY|AELLT|AELLTCD|Pending|Pending|Pending|Pending|Pending|Pending|Pending|Pending|Pending|Pending|Pending|Pending|Pending|Pending|Pending|Pending|Pending|Pending|Pending|Pending|Pending|Pending|Pending|Pending|Pending|Pending|Pending|Pending|Pending|Pending|Pending|Pending|Pending|Pending|Pending|Pending|Pending|Pending|Pending|Pending|Pending|Pending|Pending|Pending|Pending|Pending|Pending|Pending|Pending|Pending|Pending|Pending|Pending|Pending|Pending|Pending|Pending|Pending|Pending|Pending|Pending|Pending|Pending|Pending|Pending|Pending|Pending|Pending|Pending|Pending
