,,(c) 2007-2020 http://NIHPO.com   Licensed to PHUSE for non-commercial purposes only.   Contact: Jose.Lacal@NIHPO.com
,,This file's structure is based on the CDISC document 'ADaM Examples in Commonly Used Statistical Analysis Methods Version 1.0'
,,Specifically: 'Table 2.1.2.1 Illustration of Analysis Dataset ADBMD' on page 14.
,,WARNING: This information is completely fake. Values such as Age and Gender are randomly assigned using a Weighted Random Generator.

,,These are the parameters used to generate this file:
,,   Trial start date: 1992-10-20; Maximum number of days to start enrollment from start date: 60
,,   Age: Minimum 21; Maximum 90
,,   Range of values for field BASE (Baseline Value): 11 to 56
,,   Percentage of subjects receiving treatment: 40%
,,   Percentage female subjects: 45%
,,   Value of field 'Analysis Criterion 1' is 0.030000

,,Racial distribution of subjects:
,,   AMERICAN INDIAN OR ALASKA NATIVE: 10%
,,   ASIAN: 15%
,,   BLACK OR AFRICAN AMERICAN: 20%
,,   NATIVE HAWAIIAN OR OTHER PACIFIC ISLANDER: 7%
,,   WHITE: 48%

USUBJID,PARAM,PARAMCD,AVISIT,AVISITN,STUDYID,TRTP,SEX,AGE,RACE,ITTFL,AVAL,BASE,CHG,PCHG,CRIT1,CRIT1FL,ABLFL,DTYPE,BMMCHTYP,TRTSDT,ADT,ADY,XXSEQ,AWTARGET,AWTDIFF,ANL01FL
101-000001,DXA BMD at Lumbar Spine (g/cm^2),BMDLS,BASELINE,2,XXX001,Drug ABC,F,59,AMERICAN INDIAN OR ALASKA NATIVE,Y,54.209,24.057,-30.152,-1.253,>3% change from baseline,Y,Y,Y,LUNAR,1992-12-16,1992-12-16,0,N/A,N/A,N/A,N/A
101-000001,DXA BMD at Lumbar Spine (g/cm^2),BMDLS,MONTH 6,3,XXX001,Drug ABC,F,59,AMERICAN INDIAN OR ALASKA NATIVE,Y,53.539,24.057,-29.482,-1.226,>3% change from baseline,Y,Y,Y,LUNAR,1992-12-16,1993-06-17,183,N/A,N/A,N/A,N/A
101-000001,DXA BMD at Lumbar Spine (g/cm^2),BMDLS,MONTH 12,4,XXX001,Drug ABC,F,59,AMERICAN INDIAN OR ALASKA NATIVE,Y,23.858,24.057,0.199,0.008,,,Y,Y,LUNAR,1992-12-16,1993-12-16,365,N/A,N/A,N/A,N/A
101-000001,DXA BMD at Lumbar Spine (g/cm^2),BMDLS,MONTH 18,5,XXX001,Drug ABC,F,59,AMERICAN INDIAN OR ALASKA NATIVE,Y,25.578,24.057,-1.521,-0.063,>3% change from baseline,Y,Y,Y,LUNAR,1992-12-16,1994-06-17,548,N/A,N/A,N/A,N/A
101-000001,DXA BMD at Lumbar Spine (g/cm^2),BMDLS,MONTH 24,6,XXX001,Drug ABC,F,59,AMERICAN INDIAN OR ALASKA NATIVE,Y,52.849,24.057,-28.792,-1.197,>3% change from baseline,Y,Y,Y,LUNAR,1992-12-16,1994-12-16,730,N/A,N/A,N/A,N/A
101-000001,DXA BMD at Lumbar Spine (g/cm^2),BMDLS,MONTH 30,7,XXX001,Drug ABC,F,59,AMERICAN INDIAN OR ALASKA NATIVE,Y,23.968,24.057,0.089,0.004,,,Y,Y,LUNAR,1992-12-16,1995-06-17,913,N/A,N/A,N/A,N/A
101-000001,DXA BMD at Lumbar Spine (g/cm^2),BMDLS,MONTH 36,8,XXX001,Drug ABC,F,59,AMERICAN INDIAN OR ALASKA NATIVE,Y,22.543,24.057,1.514,0.063,>3% change from baseline,Y,Y,Y,LUNAR,1992-12-16,1995-12-16,1095,N/A,N/A,N/A,N/A
101-000002,DXA BMD at Lumbar Spine (g/cm^2),BMDLS,BASELINE,2,XXX001,Drug ABC,M,55,WHITE,Y,42.942,20.212,-22.730,-1.125,>3% change from baseline,Y,Y,Y,LUNAR,1992-12-12,1992-12-12,0,N/A,N/A,N/A,N/A
101-000002,DXA BMD at Lumbar Spine (g/cm^2),BMDLS,MONTH 6,3,XXX001,Drug ABC,M,55,WHITE,Y,49.331,20.212,-29.119,-1.441,>3% change from baseline,Y,Y,Y,LUNAR,1992-12-12,1993-06-13,183,N/A,N/A,N/A,N/A
101-000002,DXA BMD at Lumbar Spine (g/cm^2),BMDLS,MONTH 12,4,XXX001,Drug ABC,M,55,WHITE,Y,41.518,20.212,-21.306,-1.054,>3% change from baseline,Y,Y,Y,LUNAR,1992-12-12,1993-12-12,365,N/A,N/A,N/A,N/A
101-000002,DXA BMD at Lumbar Spine (g/cm^2),BMDLS,MONTH 18,5,XXX001,Drug ABC,M,55,WHITE,Y,25.812,20.212,-5.600,-0.277,>3% change from baseline,Y,Y,Y,LUNAR,1992-12-12,1994-06-13,548,N/A,N/A,N/A,N/A
101-000002,DXA BMD at Lumbar Spine (g/cm^2),BMDLS,MONTH 24,6,XXX001,Drug ABC,M,55,WHITE,Y,35.872,20.212,-15.660,-0.775,>3% change from baseline,Y,Y,Y,LUNAR,1992-12-12,1994-12-12,730,N/A,N/A,N/A,N/A
101-000002,DXA BMD at Lumbar Spine (g/cm^2),BMDLS,MONTH 30,7,XXX001,Drug ABC,M,55,WHITE,Y,43.859,20.212,-23.647,-1.170,>3% change from baseline,Y,Y,Y,LUNAR,1992-12-12,1995-06-13,913,N/A,N/A,N/A,N/A
101-000002,DXA BMD at Lumbar Spine (g/cm^2),BMDLS,MONTH 36,8,XXX001,Drug ABC,M,55,WHITE,Y,47.525,20.212,-27.313,-1.351,>3% change from baseline,Y,Y,Y,LUNAR,1992-12-12,1995-12-12,1095,N/A,N/A,N/A,N/A
101-000003,DXA BMD at Lumbar Spine (g/cm^2),BMDLS,BASELINE,2,XXX001,Drug ABC,F,54,BLACK OR AFRICAN AMERICAN,Y,48.306,29.076,-19.230,-0.661,>3% change from baseline,Y,Y,Y,HOLOGIC,1992-12-14,1992-12-14,0,N/A,N/A,N/A,N/A
101-000003,DXA BMD at Lumbar Spine (g/cm^2),BMDLS,MONTH 6,3,XXX001,Drug ABC,F,54,BLACK OR AFRICAN AMERICAN,Y,44.033,29.076,-14.956,-0.514,>3% change from baseline,Y,Y,Y,HOLOGIC,1992-12-14,1993-06-15,183,N/A,N/A,N/A,N/A
101-000003,DXA BMD at Lumbar Spine (g/cm^2),BMDLS,MONTH 12,4,XXX001,Drug ABC,F,54,BLACK OR AFRICAN AMERICAN,Y,12.238,29.076,16.838,0.579,>3% change from baseline,Y,Y,Y,HOLOGIC,1992-12-14,1993-12-14,365,N/A,N/A,N/A,N/A
101-000003,DXA BMD at Lumbar Spine (g/cm^2),BMDLS,MONTH 18,5,XXX001,Drug ABC,F,54,BLACK OR AFRICAN AMERICAN,Y,51.209,29.076,-22.132,-0.761,>3% change from baseline,Y,Y,Y,HOLOGIC,1992-12-14,1994-06-15,548,N/A,N/A,N/A,N/A
101-000003,DXA BMD at Lumbar Spine (g/cm^2),BMDLS,MONTH 24,6,XXX001,Drug ABC,F,54,BLACK OR AFRICAN AMERICAN,Y,25.255,29.076,3.821,0.131,>3% change from baseline,Y,Y,Y,HOLOGIC,1992-12-14,1994-12-14,730,N/A,N/A,N/A,N/A
101-000003,DXA BMD at Lumbar Spine (g/cm^2),BMDLS,MONTH 30,7,XXX001,Drug ABC,F,54,BLACK OR AFRICAN AMERICAN,Y,22.282,29.076,6.794,0.234,>3% change from baseline,Y,Y,Y,HOLOGIC,1992-12-14,1995-06-15,913,N/A,N/A,N/A,N/A
101-000003,DXA BMD at Lumbar Spine (g/cm^2),BMDLS,MONTH 36,8,XXX001,Drug ABC,F,54,BLACK OR AFRICAN AMERICAN,Y,42.969,29.076,-13.893,-0.478,>3% change from baseline,Y,Y,Y,HOLOGIC,1992-12-14,1995-12-14,1095,N/A,N/A,N/A,N/A
101-000004,DXA BMD at Lumbar Spine (g/cm^2),BMDLS,BASELINE,2,XXX001,Drug ABC,M,83,WHITE,Y,41.730,38.157,-3.573,-0.094,>3% change from baseline,Y,Y,Y,HOLOGIC,1992-11-24,1992-11-24,0,N/A,N/A,N/A,N/A
101-000004,DXA BMD at Lumbar Spine (g/cm^2),BMDLS,MONTH 6,3,XXX001,Drug ABC,M,83,WHITE,Y,53.301,38.157,-15.144,-0.397,>3% change from baseline,Y,Y,Y,HOLOGIC,1992-11-24,1993-05-26,183,N/A,N/A,N/A,N/A
101-000004,DXA BMD at Lumbar Spine (g/cm^2),BMDLS,MONTH 12,4,XXX001,Drug ABC,M,83,WHITE,Y,27.183,38.157,10.974,0.288,>3% change from baseline,Y,Y,Y,HOLOGIC,1992-11-24,1993-11-24,365,N/A,N/A,N/A,N/A
101-000004,DXA BMD at Lumbar Spine (g/cm^2),BMDLS,MONTH 18,5,XXX001,Drug ABC,M,83,WHITE,Y,23.222,38.157,14.935,0.391,>3% change from baseline,Y,Y,Y,HOLOGIC,1992-11-24,1994-05-26,548,N/A,N/A,N/A,N/A
101-000004,DXA BMD at Lumbar Spine (g/cm^2),BMDLS,MONTH 24,6,XXX001,Drug ABC,M,83,WHITE,Y,49.555,38.157,-11.398,-0.299,>3% change from baseline,Y,Y,Y,HOLOGIC,1992-11-24,1994-11-24,730,N/A,N/A,N/A,N/A
101-000004,DXA BMD at Lumbar Spine (g/cm^2),BMDLS,MONTH 30,7,XXX001,Drug ABC,M,83,WHITE,Y,23.843,38.157,14.313,0.375,>3% change from baseline,Y,Y,Y,HOLOGIC,1992-11-24,1995-05-26,913,N/A,N/A,N/A,N/A
101-000004,DXA BMD at Lumbar Spine (g/cm^2),BMDLS,MONTH 36,8,XXX001,Drug ABC,M,83,WHITE,Y,22.840,38.157,15.317,0.401,>3% change from baseline,Y,Y,Y,HOLOGIC,1992-11-24,1995-11-24,1095,N/A,N/A,N/A,N/A
101-000005,DXA BMD at Lumbar Spine (g/cm^2),BMDLS,BASELINE,2,XXX001,Placebo,M,27,WHITE,N,17.917,50.298,32.381,0.644,>3% change from baseline,Y,Y,Y,LUNAR,1992-11-23,1992-11-23,0,N/A,N/A,N/A,N/A
101-000005,DXA BMD at Lumbar Spine (g/cm^2),BMDLS,MONTH 6,3,XXX001,Placebo,M,27,WHITE,N,47.512,50.298,2.786,0.055,>3% change from baseline,Y,Y,Y,LUNAR,1992-11-23,1993-05-25,183,N/A,N/A,N/A,N/A
101-000005,DXA BMD at Lumbar Spine (g/cm^2),BMDLS,MONTH 12,4,XXX001,Placebo,M,27,WHITE,N,38.427,50.298,11.871,0.236,>3% change from baseline,Y,Y,Y,LUNAR,1992-11-23,1993-11-23,365,N/A,N/A,N/A,N/A
101-000005,DXA BMD at Lumbar Spine (g/cm^2),BMDLS,MONTH 18,5,XXX001,Placebo,M,27,WHITE,N,46.162,50.298,4.137,0.082,>3% change from baseline,Y,Y,Y,LUNAR,1992-11-23,1994-05-25,548,N/A,N/A,N/A,N/A
101-000005,DXA BMD at Lumbar Spine (g/cm^2),BMDLS,MONTH 24,6,XXX001,Placebo,M,27,WHITE,N,32.113,50.298,18.186,0.362,>3% change from baseline,Y,Y,Y,LUNAR,1992-11-23,1994-11-23,730,N/A,N/A,N/A,N/A
101-000005,DXA BMD at Lumbar Spine (g/cm^2),BMDLS,MONTH 30,7,XXX001,Placebo,M,27,WHITE,N,54.889,50.298,-4.590,-0.091,>3% change from baseline,Y,Y,Y,LUNAR,1992-11-23,1995-05-25,913,N/A,N/A,N/A,N/A
101-000005,DXA BMD at Lumbar Spine (g/cm^2),BMDLS,MONTH 36,8,XXX001,Placebo,M,27,WHITE,N,54.436,50.298,-4.138,-0.082,>3% change from baseline,Y,Y,Y,LUNAR,1992-11-23,1995-11-23,1095,N/A,N/A,N/A,N/A
101-000006,DXA BMD at Lumbar Spine (g/cm^2),BMDLS,BASELINE,2,XXX001,Placebo,F,52,WHITE,N,41.953,24.336,-17.617,-0.724,>3% change from baseline,Y,Y,Y,HOLOGIC,1992-10-31,1992-10-31,0,N/A,N/A,N/A,N/A
101-000006,DXA BMD at Lumbar Spine (g/cm^2),BMDLS,MONTH 6,3,XXX001,Placebo,F,52,WHITE,N,44.904,24.336,-20.568,-0.845,>3% change from baseline,Y,Y,Y,HOLOGIC,1992-10-31,1993-05-02,183,N/A,N/A,N/A,N/A
101-000006,DXA BMD at Lumbar Spine (g/cm^2),BMDLS,MONTH 12,4,XXX001,Placebo,F,52,WHITE,N,52.558,24.336,-28.222,-1.160,>3% change from baseline,Y,Y,Y,HOLOGIC,1992-10-31,1993-10-31,365,N/A,N/A,N/A,N/A
101-000006,DXA BMD at Lumbar Spine (g/cm^2),BMDLS,MONTH 18,5,XXX001,Placebo,F,52,WHITE,N,11.582,24.336,12.754,0.524,>3% change from baseline,Y,Y,Y,HOLOGIC,1992-10-31,1994-05-02,548,N/A,N/A,N/A,N/A
101-000006,DXA BMD at Lumbar Spine (g/cm^2),BMDLS,MONTH 24,6,XXX001,Placebo,F,52,WHITE,N,42.311,24.336,-17.975,-0.739,>3% change from baseline,Y,Y,Y,HOLOGIC,1992-10-31,1994-10-31,730,N/A,N/A,N/A,N/A
101-000006,DXA BMD at Lumbar Spine (g/cm^2),BMDLS,MONTH 30,7,XXX001,Placebo,F,52,WHITE,N,42.924,24.336,-18.588,-0.764,>3% change from baseline,Y,Y,Y,HOLOGIC,1992-10-31,1995-05-02,913,N/A,N/A,N/A,N/A
101-000006,DXA BMD at Lumbar Spine (g/cm^2),BMDLS,MONTH 36,8,XXX001,Placebo,F,52,WHITE,N,49.071,24.336,-24.735,-1.016,>3% change from baseline,Y,Y,Y,HOLOGIC,1992-10-31,1995-10-31,1095,N/A,N/A,N/A,N/A
101-000007,DXA BMD at Lumbar Spine (g/cm^2),BMDLS,BASELINE,2,XXX001,Placebo,F,23,BLACK OR AFRICAN AMERICAN,N,25.304,15.843,-9.462,-0.597,>3% change from baseline,Y,Y,Y,LUNAR,1992-10-30,1992-10-30,0,N/A,N/A,N/A,N/A
101-000007,DXA BMD at Lumbar Spine (g/cm^2),BMDLS,MONTH 6,3,XXX001,Placebo,F,23,BLACK OR AFRICAN AMERICAN,N,37.721,15.843,-21.878,-1.381,>3% change from baseline,Y,Y,Y,LUNAR,1992-10-30,1993-05-01,183,N/A,N/A,N/A,N/A
101-000007,DXA BMD at Lumbar Spine (g/cm^2),BMDLS,MONTH 12,4,XXX001,Placebo,F,23,BLACK OR AFRICAN AMERICAN,N,43.428,15.843,-27.585,-1.741,>3% change from baseline,Y,Y,Y,LUNAR,1992-10-30,1993-10-30,365,N/A,N/A,N/A,N/A
101-000007,DXA BMD at Lumbar Spine (g/cm^2),BMDLS,MONTH 18,5,XXX001,Placebo,F,23,BLACK OR AFRICAN AMERICAN,N,53.959,15.843,-38.116,-2.406,>3% change from baseline,Y,Y,Y,LUNAR,1992-10-30,1994-05-01,548,N/A,N/A,N/A,N/A
101-000007,DXA BMD at Lumbar Spine (g/cm^2),BMDLS,MONTH 24,6,XXX001,Placebo,F,23,BLACK OR AFRICAN AMERICAN,N,35.045,15.843,-19.203,-1.212,>3% change from baseline,Y,Y,Y,LUNAR,1992-10-30,1994-10-30,730,N/A,N/A,N/A,N/A
101-000007,DXA BMD at Lumbar Spine (g/cm^2),BMDLS,MONTH 30,7,XXX001,Placebo,F,23,BLACK OR AFRICAN AMERICAN,N,15.766,15.843,0.077,0.005,,,Y,Y,LUNAR,1992-10-30,1995-05-01,913,N/A,N/A,N/A,N/A
101-000007,DXA BMD at Lumbar Spine (g/cm^2),BMDLS,MONTH 36,8,XXX001,Placebo,F,23,BLACK OR AFRICAN AMERICAN,N,28.138,15.843,-12.295,-0.776,>3% change from baseline,Y,Y,Y,LUNAR,1992-10-30,1995-10-30,1095,N/A,N/A,N/A,N/A
101-000008,DXA BMD at Lumbar Spine (g/cm^2),BMDLS,BASELINE,2,XXX001,Placebo,F,64,WHITE,N,37.325,32.116,-5.210,-0.162,>3% change from baseline,Y,Y,Y,HOLOGIC,1992-12-08,1992-12-08,0,N/A,N/A,N/A,N/A
101-000008,DXA BMD at Lumbar Spine (g/cm^2),BMDLS,MONTH 6,3,XXX001,Placebo,F,64,WHITE,N,12.277,32.116,19.838,0.618,>3% change from baseline,Y,Y,Y,HOLOGIC,1992-12-08,1993-06-09,183,N/A,N/A,N/A,N/A
101-000008,DXA BMD at Lumbar Spine (g/cm^2),BMDLS,MONTH 12,4,XXX001,Placebo,F,64,WHITE,N,45.636,32.116,-13.520,-0.421,>3% change from baseline,Y,Y,Y,HOLOGIC,1992-12-08,1993-12-08,365,N/A,N/A,N/A,N/A
101-000008,DXA BMD at Lumbar Spine (g/cm^2),BMDLS,MONTH 18,5,XXX001,Placebo,F,64,WHITE,N,28.146,32.116,3.970,0.124,>3% change from baseline,Y,Y,Y,HOLOGIC,1992-12-08,1994-06-09,548,N/A,N/A,N/A,N/A
101-000008,DXA BMD at Lumbar Spine (g/cm^2),BMDLS,MONTH 24,6,XXX001,Placebo,F,64,WHITE,N,54.215,32.116,-22.099,-0.688,>3% change from baseline,Y,Y,Y,HOLOGIC,1992-12-08,1994-12-08,730,N/A,N/A,N/A,N/A
101-000008,DXA BMD at Lumbar Spine (g/cm^2),BMDLS,MONTH 30,7,XXX001,Placebo,F,64,WHITE,N,32.140,32.116,-0.024,-0.001,,,Y,Y,HOLOGIC,1992-12-08,1995-06-09,913,N/A,N/A,N/A,N/A
101-000008,DXA BMD at Lumbar Spine (g/cm^2),BMDLS,MONTH 36,8,XXX001,Placebo,F,64,WHITE,N,49.714,32.116,-17.598,-0.548,>3% change from baseline,Y,Y,Y,HOLOGIC,1992-12-08,1995-12-08,1095,N/A,N/A,N/A,N/A
101-000009,DXA BMD at Lumbar Spine (g/cm^2),BMDLS,BASELINE,2,XXX001,Drug ABC,F,22,WHITE,Y,45.516,54.906,9.390,0.171,>3% change from baseline,Y,Y,Y,HOLOGIC,1992-11-27,1992-11-27,0,N/A,N/A,N/A,N/A
101-000009,DXA BMD at Lumbar Spine (g/cm^2),BMDLS,MONTH 6,3,XXX001,Drug ABC,F,22,WHITE,Y,44.621,54.906,10.285,0.187,>3% change from baseline,Y,Y,Y,HOLOGIC,1992-11-27,1993-05-29,183,N/A,N/A,N/A,N/A
101-000009,DXA BMD at Lumbar Spine (g/cm^2),BMDLS,MONTH 12,4,XXX001,Drug ABC,F,22,WHITE,Y,33.623,54.906,21.283,0.388,>3% change from baseline,Y,Y,Y,HOLOGIC,1992-11-27,1993-11-27,365,N/A,N/A,N/A,N/A
101-000009,DXA BMD at Lumbar Spine (g/cm^2),BMDLS,MONTH 18,5,XXX001,Drug ABC,F,22,WHITE,Y,55.155,54.906,-0.249,-0.005,,,Y,Y,HOLOGIC,1992-11-27,1994-05-29,548,N/A,N/A,N/A,N/A
101-000009,DXA BMD at Lumbar Spine (g/cm^2),BMDLS,MONTH 24,6,XXX001,Drug ABC,F,22,WHITE,Y,37.899,54.906,17.007,0.310,>3% change from baseline,Y,Y,Y,HOLOGIC,1992-11-27,1994-11-27,730,N/A,N/A,N/A,N/A
101-000009,DXA BMD at Lumbar Spine (g/cm^2),BMDLS,MONTH 30,7,XXX001,Drug ABC,F,22,WHITE,Y,35.432,54.906,19.474,0.355,>3% change from baseline,Y,Y,Y,HOLOGIC,1992-11-27,1995-05-29,913,N/A,N/A,N/A,N/A
101-000009,DXA BMD at Lumbar Spine (g/cm^2),BMDLS,MONTH 36,8,XXX001,Drug ABC,F,22,WHITE,Y,22.643,54.906,32.263,0.588,>3% change from baseline,Y,Y,Y,HOLOGIC,1992-11-27,1995-11-27,1095,N/A,N/A,N/A,N/A
101-000010,DXA BMD at Lumbar Spine (g/cm^2),BMDLS,BASELINE,2,XXX001,Drug ABC,M,62,WHITE,Y,26.279,36.112,9.833,0.272,>3% change from baseline,Y,Y,Y,HOLOGIC,1992-12-04,1992-12-04,0,N/A,N/A,N/A,N/A
101-000010,DXA BMD at Lumbar Spine (g/cm^2),BMDLS,MONTH 6,3,XXX001,Drug ABC,M,62,WHITE,Y,29.809,36.112,6.303,0.175,>3% change from baseline,Y,Y,Y,HOLOGIC,1992-12-04,1993-06-05,183,N/A,N/A,N/A,N/A
101-000010,DXA BMD at Lumbar Spine (g/cm^2),BMDLS,MONTH 12,4,XXX001,Drug ABC,M,62,WHITE,Y,56.077,36.112,-19.965,-0.553,>3% change from baseline,Y,Y,Y,HOLOGIC,1992-12-04,1993-12-04,365,N/A,N/A,N/A,N/A
101-000010,DXA BMD at Lumbar Spine (g/cm^2),BMDLS,MONTH 18,5,XXX001,Drug ABC,M,62,WHITE,Y,43.748,36.112,-7.636,-0.211,>3% change from baseline,Y,Y,Y,HOLOGIC,1992-12-04,1994-06-05,548,N/A,N/A,N/A,N/A
101-000010,DXA BMD at Lumbar Spine (g/cm^2),BMDLS,MONTH 24,6,XXX001,Drug ABC,M,62,WHITE,Y,30.336,36.112,5.777,0.160,>3% change from baseline,Y,Y,Y,HOLOGIC,1992-12-04,1994-12-04,730,N/A,N/A,N/A,N/A
101-000010,DXA BMD at Lumbar Spine (g/cm^2),BMDLS,MONTH 30,7,XXX001,Drug ABC,M,62,WHITE,Y,23.238,36.112,12.874,0.357,>3% change from baseline,Y,Y,Y,HOLOGIC,1992-12-04,1995-06-05,913,N/A,N/A,N/A,N/A
101-000010,DXA BMD at Lumbar Spine (g/cm^2),BMDLS,MONTH 36,8,XXX001,Drug ABC,M,62,WHITE,Y,47.004,36.112,-10.892,-0.302,>3% change from baseline,Y,Y,Y,HOLOGIC,1992-12-04,1995-12-04,1095,N/A,N/A,N/A,N/A
101-000011,DXA BMD at Lumbar Spine (g/cm^2),BMDLS,BASELINE,2,XXX001,Placebo,F,35,AMERICAN INDIAN OR ALASKA NATIVE,N,54.765,42.881,-11.883,-0.277,>3% change from baseline,Y,Y,Y,LUNAR,1992-12-17,1992-12-17,0,N/A,N/A,N/A,N/A
101-000011,DXA BMD at Lumbar Spine (g/cm^2),BMDLS,MONTH 6,3,XXX001,Placebo,F,35,AMERICAN INDIAN OR ALASKA NATIVE,N,37.400,42.881,5.481,0.128,>3% change from baseline,Y,Y,Y,LUNAR,1992-12-17,1993-06-18,183,N/A,N/A,N/A,N/A
101-000011,DXA BMD at Lumbar Spine (g/cm^2),BMDLS,MONTH 12,4,XXX001,Placebo,F,35,AMERICAN INDIAN OR ALASKA NATIVE,N,49.720,42.881,-6.839,-0.159,>3% change from baseline,Y,Y,Y,LUNAR,1992-12-17,1993-12-17,365,N/A,N/A,N/A,N/A
101-000011,DXA BMD at Lumbar Spine (g/cm^2),BMDLS,MONTH 18,5,XXX001,Placebo,F,35,AMERICAN INDIAN OR ALASKA NATIVE,N,56.149,42.881,-13.268,-0.309,>3% change from baseline,Y,Y,Y,LUNAR,1992-12-17,1994-06-18,548,N/A,N/A,N/A,N/A
101-000011,DXA BMD at Lumbar Spine (g/cm^2),BMDLS,MONTH 24,6,XXX001,Placebo,F,35,AMERICAN INDIAN OR ALASKA NATIVE,N,45.312,42.881,-2.431,-0.057,>3% change from baseline,Y,Y,Y,LUNAR,1992-12-17,1994-12-17,730,N/A,N/A,N/A,N/A
101-000011,DXA BMD at Lumbar Spine (g/cm^2),BMDLS,MONTH 30,7,XXX001,Placebo,F,35,AMERICAN INDIAN OR ALASKA NATIVE,N,56.061,42.881,-13.180,-0.307,>3% change from baseline,Y,Y,Y,LUNAR,1992-12-17,1995-06-18,913,N/A,N/A,N/A,N/A
101-000011,DXA BMD at Lumbar Spine (g/cm^2),BMDLS,MONTH 36,8,XXX001,Placebo,F,35,AMERICAN INDIAN OR ALASKA NATIVE,N,43.755,42.881,-0.874,-0.020,,,Y,Y,LUNAR,1992-12-17,1995-12-17,1095,N/A,N/A,N/A,N/A
101-000012,DXA BMD at Lumbar Spine (g/cm^2),BMDLS,BASELINE,2,XXX001,Drug ABC,F,35,BLACK OR AFRICAN AMERICAN,Y,24.043,23.576,-0.466,-0.020,,,Y,Y,HOLOGIC,1992-11-27,1992-11-27,0,N/A,N/A,N/A,N/A
101-000012,DXA BMD at Lumbar Spine (g/cm^2),BMDLS,MONTH 6,3,XXX001,Drug ABC,F,35,BLACK OR AFRICAN AMERICAN,Y,37.202,23.576,-13.625,-0.578,>3% change from baseline,Y,Y,Y,HOLOGIC,1992-11-27,1993-05-29,183,N/A,N/A,N/A,N/A
101-000012,DXA BMD at Lumbar Spine (g/cm^2),BMDLS,MONTH 12,4,XXX001,Drug ABC,F,35,BLACK OR AFRICAN AMERICAN,Y,41.750,23.576,-18.174,-0.771,>3% change from baseline,Y,Y,Y,HOLOGIC,1992-11-27,1993-11-27,365,N/A,N/A,N/A,N/A
101-000012,DXA BMD at Lumbar Spine (g/cm^2),BMDLS,MONTH 18,5,XXX001,Drug ABC,F,35,BLACK OR AFRICAN AMERICAN,Y,28.483,23.576,-4.907,-0.208,>3% change from baseline,Y,Y,Y,HOLOGIC,1992-11-27,1994-05-29,548,N/A,N/A,N/A,N/A
101-000012,DXA BMD at Lumbar Spine (g/cm^2),BMDLS,MONTH 24,6,XXX001,Drug ABC,F,35,BLACK OR AFRICAN AMERICAN,Y,31.219,23.576,-7.643,-0.324,>3% change from baseline,Y,Y,Y,HOLOGIC,1992-11-27,1994-11-27,730,N/A,N/A,N/A,N/A
101-000012,DXA BMD at Lumbar Spine (g/cm^2),BMDLS,MONTH 30,7,XXX001,Drug ABC,F,35,BLACK OR AFRICAN AMERICAN,Y,40.096,23.576,-16.520,-0.701,>3% change from baseline,Y,Y,Y,HOLOGIC,1992-11-27,1995-05-29,913,N/A,N/A,N/A,N/A
101-000012,DXA BMD at Lumbar Spine (g/cm^2),BMDLS,MONTH 36,8,XXX001,Drug ABC,F,35,BLACK OR AFRICAN AMERICAN,Y,56.145,23.576,-32.568,-1.381,>3% change from baseline,Y,Y,Y,HOLOGIC,1992-11-27,1995-11-27,1095,N/A,N/A,N/A,N/A
101-000013,DXA BMD at Lumbar Spine (g/cm^2),BMDLS,BASELINE,2,XXX001,Drug ABC,F,65,WHITE,Y,49.055,39.620,-9.435,-0.238,>3% change from baseline,Y,Y,Y,HOLOGIC,1992-11-10,1992-11-10,0,N/A,N/A,N/A,N/A
101-000013,DXA BMD at Lumbar Spine (g/cm^2),BMDLS,MONTH 6,3,XXX001,Drug ABC,F,65,WHITE,Y,50.025,39.620,-10.405,-0.263,>3% change from baseline,Y,Y,Y,HOLOGIC,1992-11-10,1993-05-12,183,N/A,N/A,N/A,N/A
101-000013,DXA BMD at Lumbar Spine (g/cm^2),BMDLS,MONTH 12,4,XXX001,Drug ABC,F,65,WHITE,Y,29.970,39.620,9.650,0.244,>3% change from baseline,Y,Y,Y,HOLOGIC,1992-11-10,1993-11-10,365,N/A,N/A,N/A,N/A
101-000013,DXA BMD at Lumbar Spine (g/cm^2),BMDLS,MONTH 18,5,XXX001,Drug ABC,F,65,WHITE,Y,16.678,39.620,22.942,0.579,>3% change from baseline,Y,Y,Y,HOLOGIC,1992-11-10,1994-05-12,548,N/A,N/A,N/A,N/A
101-000013,DXA BMD at Lumbar Spine (g/cm^2),BMDLS,MONTH 24,6,XXX001,Drug ABC,F,65,WHITE,Y,12.338,39.620,27.282,0.689,>3% change from baseline,Y,Y,Y,HOLOGIC,1992-11-10,1994-11-10,730,N/A,N/A,N/A,N/A
101-000013,DXA BMD at Lumbar Spine (g/cm^2),BMDLS,MONTH 30,7,XXX001,Drug ABC,F,65,WHITE,Y,24.384,39.620,15.236,0.385,>3% change from baseline,Y,Y,Y,HOLOGIC,1992-11-10,1995-05-12,913,N/A,N/A,N/A,N/A
101-000013,DXA BMD at Lumbar Spine (g/cm^2),BMDLS,MONTH 36,8,XXX001,Drug ABC,F,65,WHITE,Y,38.718,39.620,0.902,0.023,,,Y,Y,HOLOGIC,1992-11-10,1995-11-10,1095,N/A,N/A,N/A,N/A
101-000014,DXA BMD at Lumbar Spine (g/cm^2),BMDLS,BASELINE,2,XXX001,Placebo,M,34,BLACK OR AFRICAN AMERICAN,N,46.529,19.945,-26.584,-1.333,>3% change from baseline,Y,Y,Y,LUNAR,1992-11-04,1992-11-04,0,N/A,N/A,N/A,N/A
101-000014,DXA BMD at Lumbar Spine (g/cm^2),BMDLS,MONTH 6,3,XXX001,Placebo,M,34,BLACK OR AFRICAN AMERICAN,N,19.766,19.945,0.179,0.009,,,Y,Y,LUNAR,1992-11-04,1993-05-06,183,N/A,N/A,N/A,N/A
101-000014,DXA BMD at Lumbar Spine (g/cm^2),BMDLS,MONTH 12,4,XXX001,Placebo,M,34,BLACK OR AFRICAN AMERICAN,N,19.706,19.945,0.239,0.012,,,Y,Y,LUNAR,1992-11-04,1993-11-04,365,N/A,N/A,N/A,N/A
101-000014,DXA BMD at Lumbar Spine (g/cm^2),BMDLS,MONTH 18,5,XXX001,Placebo,M,34,BLACK OR AFRICAN AMERICAN,N,19.948,19.945,-0.003,-0.000,,,Y,Y,LUNAR,1992-11-04,1994-05-06,548,N/A,N/A,N/A,N/A
101-000014,DXA BMD at Lumbar Spine (g/cm^2),BMDLS,MONTH 24,6,XXX001,Placebo,M,34,BLACK OR AFRICAN AMERICAN,N,27.092,19.945,-7.147,-0.358,>3% change from baseline,Y,Y,Y,LUNAR,1992-11-04,1994-11-04,730,N/A,N/A,N/A,N/A
101-000014,DXA BMD at Lumbar Spine (g/cm^2),BMDLS,MONTH 30,7,XXX001,Placebo,M,34,BLACK OR AFRICAN AMERICAN,N,16.944,19.945,3.001,0.150,>3% change from baseline,Y,Y,Y,LUNAR,1992-11-04,1995-05-06,913,N/A,N/A,N/A,N/A
101-000014,DXA BMD at Lumbar Spine (g/cm^2),BMDLS,MONTH 36,8,XXX001,Placebo,M,34,BLACK OR AFRICAN AMERICAN,N,20.364,19.945,-0.419,-0.021,,,Y,Y,LUNAR,1992-11-04,1995-11-04,1095,N/A,N/A,N/A,N/A
101-000015,DXA BMD at Lumbar Spine (g/cm^2),BMDLS,BASELINE,2,XXX001,Drug ABC,F,53,ASIAN,Y,47.664,13.549,-34.116,-2.518,>3% change from baseline,Y,Y,Y,LUNAR,1992-12-08,1992-12-08,0,N/A,N/A,N/A,N/A
101-000015,DXA BMD at Lumbar Spine (g/cm^2),BMDLS,MONTH 6,3,XXX001,Drug ABC,F,53,ASIAN,Y,17.972,13.549,-4.423,-0.326,>3% change from baseline,Y,Y,Y,LUNAR,1992-12-08,1993-06-09,183,N/A,N/A,N/A,N/A
101-000015,DXA BMD at Lumbar Spine (g/cm^2),BMDLS,MONTH 12,4,XXX001,Drug ABC,F,53,ASIAN,Y,34.388,13.549,-20.839,-1.538,>3% change from baseline,Y,Y,Y,LUNAR,1992-12-08,1993-12-08,365,N/A,N/A,N/A,N/A
101-000015,DXA BMD at Lumbar Spine (g/cm^2),BMDLS,MONTH 18,5,XXX001,Drug ABC,F,53,ASIAN,Y,49.025,13.549,-35.477,-2.618,>3% change from baseline,Y,Y,Y,LUNAR,1992-12-08,1994-06-09,548,N/A,N/A,N/A,N/A
101-000015,DXA BMD at Lumbar Spine (g/cm^2),BMDLS,MONTH 24,6,XXX001,Drug ABC,F,53,ASIAN,Y,37.085,13.549,-23.536,-1.737,>3% change from baseline,Y,Y,Y,LUNAR,1992-12-08,1994-12-08,730,N/A,N/A,N/A,N/A
101-000015,DXA BMD at Lumbar Spine (g/cm^2),BMDLS,MONTH 30,7,XXX001,Drug ABC,F,53,ASIAN,Y,34.604,13.549,-21.055,-1.554,>3% change from baseline,Y,Y,Y,LUNAR,1992-12-08,1995-06-09,913,N/A,N/A,N/A,N/A
101-000015,DXA BMD at Lumbar Spine (g/cm^2),BMDLS,MONTH 36,8,XXX001,Drug ABC,F,53,ASIAN,Y,36.055,13.549,-22.506,-1.661,>3% change from baseline,Y,Y,Y,LUNAR,1992-12-08,1995-12-08,1095,N/A,N/A,N/A,N/A
101-000016,DXA BMD at Lumbar Spine (g/cm^2),BMDLS,BASELINE,2,XXX001,Placebo,M,83,BLACK OR AFRICAN AMERICAN,N,31.693,13.412,-18.281,-1.363,>3% change from baseline,Y,Y,Y,LUNAR,1992-11-21,1992-11-21,0,N/A,N/A,N/A,N/A
101-000016,DXA BMD at Lumbar Spine (g/cm^2),BMDLS,MONTH 6,3,XXX001,Placebo,M,83,BLACK OR AFRICAN AMERICAN,N,50.116,13.412,-36.704,-2.737,>3% change from baseline,Y,Y,Y,LUNAR,1992-11-21,1993-05-23,183,N/A,N/A,N/A,N/A
101-000016,DXA BMD at Lumbar Spine (g/cm^2),BMDLS,MONTH 12,4,XXX001,Placebo,M,83,BLACK OR AFRICAN AMERICAN,N,19.939,13.412,-6.527,-0.487,>3% change from baseline,Y,Y,Y,LUNAR,1992-11-21,1993-11-21,365,N/A,N/A,N/A,N/A
101-000016,DXA BMD at Lumbar Spine (g/cm^2),BMDLS,MONTH 18,5,XXX001,Placebo,M,83,BLACK OR AFRICAN AMERICAN,N,36.965,13.412,-23.553,-1.756,>3% change from baseline,Y,Y,Y,LUNAR,1992-11-21,1994-05-23,548,N/A,N/A,N/A,N/A
101-000016,DXA BMD at Lumbar Spine (g/cm^2),BMDLS,MONTH 24,6,XXX001,Placebo,M,83,BLACK OR AFRICAN AMERICAN,N,50.085,13.412,-36.673,-2.734,>3% change from baseline,Y,Y,Y,LUNAR,1992-11-21,1994-11-21,730,N/A,N/A,N/A,N/A
101-000016,DXA BMD at Lumbar Spine (g/cm^2),BMDLS,MONTH 30,7,XXX001,Placebo,M,83,BLACK OR AFRICAN AMERICAN,N,52.818,13.412,-39.405,-2.938,>3% change from baseline,Y,Y,Y,LUNAR,1992-11-21,1995-05-23,913,N/A,N/A,N/A,N/A
101-000016,DXA BMD at Lumbar Spine (g/cm^2),BMDLS,MONTH 36,8,XXX001,Placebo,M,83,BLACK OR AFRICAN AMERICAN,N,43.595,13.412,-30.183,-2.250,>3% change from baseline,Y,Y,Y,LUNAR,1992-11-21,1995-11-21,1095,N/A,N/A,N/A,N/A
101-000017,DXA BMD at Lumbar Spine (g/cm^2),BMDLS,BASELINE,2,XXX001,Drug ABC,M,50,WHITE,Y,41.216,37.266,-3.949,-0.106,>3% change from baseline,Y,Y,Y,HOLOGIC,1992-11-15,1992-11-15,0,N/A,N/A,N/A,N/A
101-000017,DXA BMD at Lumbar Spine (g/cm^2),BMDLS,MONTH 6,3,XXX001,Drug ABC,M,50,WHITE,Y,33.563,37.266,3.703,0.099,>3% change from baseline,Y,Y,Y,HOLOGIC,1992-11-15,1993-05-17,183,N/A,N/A,N/A,N/A
101-000017,DXA BMD at Lumbar Spine (g/cm^2),BMDLS,MONTH 12,4,XXX001,Drug ABC,M,50,WHITE,Y,28.545,37.266,8.721,0.234,>3% change from baseline,Y,Y,Y,HOLOGIC,1992-11-15,1993-11-15,365,N/A,N/A,N/A,N/A
101-000017,DXA BMD at Lumbar Spine (g/cm^2),BMDLS,MONTH 18,5,XXX001,Drug ABC,M,50,WHITE,Y,47.125,37.266,-9.859,-0.265,>3% change from baseline,Y,Y,Y,HOLOGIC,1992-11-15,1994-05-17,548,N/A,N/A,N/A,N/A
101-000017,DXA BMD at Lumbar Spine (g/cm^2),BMDLS,MONTH 24,6,XXX001,Drug ABC,M,50,WHITE,Y,20.506,37.266,16.760,0.450,>3% change from baseline,Y,Y,Y,HOLOGIC,1992-11-15,1994-11-15,730,N/A,N/A,N/A,N/A
101-000017,DXA BMD at Lumbar Spine (g/cm^2),BMDLS,MONTH 30,7,XXX001,Drug ABC,M,50,WHITE,Y,32.995,37.266,4.271,0.115,>3% change from baseline,Y,Y,Y,HOLOGIC,1992-11-15,1995-05-17,913,N/A,N/A,N/A,N/A
101-000017,DXA BMD at Lumbar Spine (g/cm^2),BMDLS,MONTH 36,8,XXX001,Drug ABC,M,50,WHITE,Y,23.287,37.266,13.980,0.375,>3% change from baseline,Y,Y,Y,HOLOGIC,1992-11-15,1995-11-15,1095,N/A,N/A,N/A,N/A
101-000018,DXA BMD at Lumbar Spine (g/cm^2),BMDLS,BASELINE,2,XXX001,Placebo,F,43,BLACK OR AFRICAN AMERICAN,N,41.461,55.606,14.146,0.254,>3% change from baseline,Y,Y,Y,HOLOGIC,1992-10-28,1992-10-28,0,N/A,N/A,N/A,N/A
101-000018,DXA BMD at Lumbar Spine (g/cm^2),BMDLS,MONTH 6,3,XXX001,Placebo,F,43,BLACK OR AFRICAN AMERICAN,N,51.420,55.606,4.186,0.075,>3% change from baseline,Y,Y,Y,HOLOGIC,1992-10-28,1993-04-29,183,N/A,N/A,N/A,N/A
101-000018,DXA BMD at Lumbar Spine (g/cm^2),BMDLS,MONTH 12,4,XXX001,Placebo,F,43,BLACK OR AFRICAN AMERICAN,N,46.375,55.606,9.232,0.166,>3% change from baseline,Y,Y,Y,HOLOGIC,1992-10-28,1993-10-28,365,N/A,N/A,N/A,N/A
101-000018,DXA BMD at Lumbar Spine (g/cm^2),BMDLS,MONTH 18,5,XXX001,Placebo,F,43,BLACK OR AFRICAN AMERICAN,N,16.478,55.606,39.128,0.704,>3% change from baseline,Y,Y,Y,HOLOGIC,1992-10-28,1994-04-29,548,N/A,N/A,N/A,N/A
101-000018,DXA BMD at Lumbar Spine (g/cm^2),BMDLS,MONTH 24,6,XXX001,Placebo,F,43,BLACK OR AFRICAN AMERICAN,N,28.847,55.606,26.760,0.481,>3% change from baseline,Y,Y,Y,HOLOGIC,1992-10-28,1994-10-28,730,N/A,N/A,N/A,N/A
101-000018,DXA BMD at Lumbar Spine (g/cm^2),BMDLS,MONTH 30,7,XXX001,Placebo,F,43,BLACK OR AFRICAN AMERICAN,N,14.116,55.606,41.490,0.746,>3% change from baseline,Y,Y,Y,HOLOGIC,1992-10-28,1995-04-29,913,N/A,N/A,N/A,N/A
101-000018,DXA BMD at Lumbar Spine (g/cm^2),BMDLS,MONTH 36,8,XXX001,Placebo,F,43,BLACK OR AFRICAN AMERICAN,N,43.657,55.606,11.950,0.215,>3% change from baseline,Y,Y,Y,HOLOGIC,1992-10-28,1995-10-28,1095,N/A,N/A,N/A,N/A
101-000019,DXA BMD at Lumbar Spine (g/cm^2),BMDLS,BASELINE,2,XXX001,Placebo,F,61,AMERICAN INDIAN OR ALASKA NATIVE,N,43.600,38.117,-5.482,-0.144,>3% change from baseline,Y,Y,Y,HOLOGIC,1992-10-26,1992-10-26,0,N/A,N/A,N/A,N/A
101-000019,DXA BMD at Lumbar Spine (g/cm^2),BMDLS,MONTH 6,3,XXX001,Placebo,F,61,AMERICAN INDIAN OR ALASKA NATIVE,N,44.894,38.117,-6.777,-0.178,>3% change from baseline,Y,Y,Y,HOLOGIC,1992-10-26,1993-04-27,183,N/A,N/A,N/A,N/A
101-000019,DXA BMD at Lumbar Spine (g/cm^2),BMDLS,MONTH 12,4,XXX001,Placebo,F,61,AMERICAN INDIAN OR ALASKA NATIVE,N,11.624,38.117,26.493,0.695,>3% change from baseline,Y,Y,Y,HOLOGIC,1992-10-26,1993-10-26,365,N/A,N/A,N/A,N/A
101-000019,DXA BMD at Lumbar Spine (g/cm^2),BMDLS,MONTH 18,5,XXX001,Placebo,F,61,AMERICAN INDIAN OR ALASKA NATIVE,N,39.087,38.117,-0.969,-0.025,,,Y,Y,HOLOGIC,1992-10-26,1994-04-27,548,N/A,N/A,N/A,N/A
101-000019,DXA BMD at Lumbar Spine (g/cm^2),BMDLS,MONTH 24,6,XXX001,Placebo,F,61,AMERICAN INDIAN OR ALASKA NATIVE,N,47.653,38.117,-9.536,-0.250,>3% change from baseline,Y,Y,Y,HOLOGIC,1992-10-26,1994-10-26,730,N/A,N/A,N/A,N/A
101-000019,DXA BMD at Lumbar Spine (g/cm^2),BMDLS,MONTH 30,7,XXX001,Placebo,F,61,AMERICAN INDIAN OR ALASKA NATIVE,N,40.232,38.117,-2.115,-0.055,>3% change from baseline,Y,Y,Y,HOLOGIC,1992-10-26,1995-04-27,913,N/A,N/A,N/A,N/A
101-000019,DXA BMD at Lumbar Spine (g/cm^2),BMDLS,MONTH 36,8,XXX001,Placebo,F,61,AMERICAN INDIAN OR ALASKA NATIVE,N,52.488,38.117,-14.370,-0.377,>3% change from baseline,Y,Y,Y,HOLOGIC,1992-10-26,1995-10-26,1095,N/A,N/A,N/A,N/A
101-000020,DXA BMD at Lumbar Spine (g/cm^2),BMDLS,BASELINE,2,XXX001,Placebo,M,74,WHITE,N,50.313,11.620,-38.694,-3.330,>3% change from baseline,Y,Y,Y,HOLOGIC,1992-11-23,1992-11-23,0,N/A,N/A,N/A,N/A
101-000020,DXA BMD at Lumbar Spine (g/cm^2),BMDLS,MONTH 6,3,XXX001,Placebo,M,74,WHITE,N,22.354,11.620,-10.734,-0.924,>3% change from baseline,Y,Y,Y,HOLOGIC,1992-11-23,1993-05-25,183,N/A,N/A,N/A,N/A
101-000020,DXA BMD at Lumbar Spine (g/cm^2),BMDLS,MONTH 12,4,XXX001,Placebo,M,74,WHITE,N,28.597,11.620,-16.977,-1.461,>3% change from baseline,Y,Y,Y,HOLOGIC,1992-11-23,1993-11-23,365,N/A,N/A,N/A,N/A
101-000020,DXA BMD at Lumbar Spine (g/cm^2),BMDLS,MONTH 18,5,XXX001,Placebo,M,74,WHITE,N,17.271,11.620,-5.651,-0.486,>3% change from baseline,Y,Y,Y,HOLOGIC,1992-11-23,1994-05-25,548,N/A,N/A,N/A,N/A
101-000020,DXA BMD at Lumbar Spine (g/cm^2),BMDLS,MONTH 24,6,XXX001,Placebo,M,74,WHITE,N,32.634,11.620,-21.015,-1.809,>3% change from baseline,Y,Y,Y,HOLOGIC,1992-11-23,1994-11-23,730,N/A,N/A,N/A,N/A
101-000020,DXA BMD at Lumbar Spine (g/cm^2),BMDLS,MONTH 30,7,XXX001,Placebo,M,74,WHITE,N,54.107,11.620,-42.487,-3.656,>3% change from baseline,Y,Y,Y,HOLOGIC,1992-11-23,1995-05-25,913,N/A,N/A,N/A,N/A
101-000020,DXA BMD at Lumbar Spine (g/cm^2),BMDLS,MONTH 36,8,XXX001,Placebo,M,74,WHITE,N,21.297,11.620,-9.678,-0.833,>3% change from baseline,Y,Y,Y,HOLOGIC,1992-11-23,1995-11-23,1095,N/A,N/A,N/A,N/A
101-000021,DXA BMD at Lumbar Spine (g/cm^2),BMDLS,BASELINE,2,XXX001,Placebo,F,37,WHITE,N,43.703,32.185,-11.518,-0.358,>3% change from baseline,Y,Y,Y,LUNAR,1992-11-09,1992-11-09,0,N/A,N/A,N/A,N/A
101-000021,DXA BMD at Lumbar Spine (g/cm^2),BMDLS,MONTH 6,3,XXX001,Placebo,F,37,WHITE,N,48.459,32.185,-16.273,-0.506,>3% change from baseline,Y,Y,Y,LUNAR,1992-11-09,1993-05-11,183,N/A,N/A,N/A,N/A
101-000021,DXA BMD at Lumbar Spine (g/cm^2),BMDLS,MONTH 12,4,XXX001,Placebo,F,37,WHITE,N,30.133,32.185,2.053,0.064,>3% change from baseline,Y,Y,Y,LUNAR,1992-11-09,1993-11-09,365,N/A,N/A,N/A,N/A
101-000021,DXA BMD at Lumbar Spine (g/cm^2),BMDLS,MONTH 18,5,XXX001,Placebo,F,37,WHITE,N,21.764,32.185,10.421,0.324,>3% change from baseline,Y,Y,Y,LUNAR,1992-11-09,1994-05-11,548,N/A,N/A,N/A,N/A
101-000021,DXA BMD at Lumbar Spine (g/cm^2),BMDLS,MONTH 24,6,XXX001,Placebo,F,37,WHITE,N,37.207,32.185,-5.022,-0.156,>3% change from baseline,Y,Y,Y,LUNAR,1992-11-09,1994-11-09,730,N/A,N/A,N/A,N/A
101-000021,DXA BMD at Lumbar Spine (g/cm^2),BMDLS,MONTH 30,7,XXX001,Placebo,F,37,WHITE,N,33.815,32.185,-1.629,-0.051,>3% change from baseline,Y,Y,Y,LUNAR,1992-11-09,1995-05-11,913,N/A,N/A,N/A,N/A
101-000021,DXA BMD at Lumbar Spine (g/cm^2),BMDLS,MONTH 36,8,XXX001,Placebo,F,37,WHITE,N,25.123,32.185,7.063,0.219,>3% change from baseline,Y,Y,Y,LUNAR,1992-11-09,1995-11-09,1095,N/A,N/A,N/A,N/A
101-000022,DXA BMD at Lumbar Spine (g/cm^2),BMDLS,BASELINE,2,XXX001,Drug ABC,F,56,BLACK OR AFRICAN AMERICAN,Y,37.638,50.005,12.366,0.247,>3% change from baseline,Y,Y,Y,HOLOGIC,1992-11-30,1992-11-30,0,N/A,N/A,N/A,N/A
101-000022,DXA BMD at Lumbar Spine (g/cm^2),BMDLS,MONTH 6,3,XXX001,Drug ABC,F,56,BLACK OR AFRICAN AMERICAN,Y,11.322,50.005,38.682,0.774,>3% change from baseline,Y,Y,Y,HOLOGIC,1992-11-30,1993-06-01,183,N/A,N/A,N/A,N/A
101-000022,DXA BMD at Lumbar Spine (g/cm^2),BMDLS,MONTH 12,4,XXX001,Drug ABC,F,56,BLACK OR AFRICAN AMERICAN,Y,40.751,50.005,9.253,0.185,>3% change from baseline,Y,Y,Y,HOLOGIC,1992-11-30,1993-11-30,365,N/A,N/A,N/A,N/A
101-000022,DXA BMD at Lumbar Spine (g/cm^2),BMDLS,MONTH 18,5,XXX001,Drug ABC,F,56,BLACK OR AFRICAN AMERICAN,Y,17.644,50.005,32.360,0.647,>3% change from baseline,Y,Y,Y,HOLOGIC,1992-11-30,1994-06-01,548,N/A,N/A,N/A,N/A
101-000022,DXA BMD at Lumbar Spine (g/cm^2),BMDLS,MONTH 24,6,XXX001,Drug ABC,F,56,BLACK OR AFRICAN AMERICAN,Y,38.724,50.005,11.281,0.226,>3% change from baseline,Y,Y,Y,HOLOGIC,1992-11-30,1994-11-30,730,N/A,N/A,N/A,N/A
101-000022,DXA BMD at Lumbar Spine (g/cm^2),BMDLS,MONTH 30,7,XXX001,Drug ABC,F,56,BLACK OR AFRICAN AMERICAN,Y,40.367,50.005,9.637,0.193,>3% change from baseline,Y,Y,Y,HOLOGIC,1992-11-30,1995-06-01,913,N/A,N/A,N/A,N/A
101-000022,DXA BMD at Lumbar Spine (g/cm^2),BMDLS,MONTH 36,8,XXX001,Drug ABC,F,56,BLACK OR AFRICAN AMERICAN,Y,41.955,50.005,8.049,0.161,>3% change from baseline,Y,Y,Y,HOLOGIC,1992-11-30,1995-11-30,1095,N/A,N/A,N/A,N/A
101-000023,DXA BMD at Lumbar Spine (g/cm^2),BMDLS,BASELINE,2,XXX001,Placebo,F,25,NATIVE HAWAIIAN OR OTHER PACIFIC ISLANDER,N,51.353,30.548,-20.806,-0.681,>3% change from baseline,Y,Y,Y,LUNAR,1992-12-18,1992-12-18,0,N/A,N/A,N/A,N/A
101-000023,DXA BMD at Lumbar Spine (g/cm^2),BMDLS,MONTH 6,3,XXX001,Placebo,F,25,NATIVE HAWAIIAN OR OTHER PACIFIC ISLANDER,N,20.353,30.548,10.194,0.334,>3% change from baseline,Y,Y,Y,LUNAR,1992-12-18,1993-06-19,183,N/A,N/A,N/A,N/A
101-000023,DXA BMD at Lumbar Spine (g/cm^2),BMDLS,MONTH 12,4,XXX001,Placebo,F,25,NATIVE HAWAIIAN OR OTHER PACIFIC ISLANDER,N,37.341,30.548,-6.794,-0.222,>3% change from baseline,Y,Y,Y,LUNAR,1992-12-18,1993-12-18,365,N/A,N/A,N/A,N/A
101-000023,DXA BMD at Lumbar Spine (g/cm^2),BMDLS,MONTH 18,5,XXX001,Placebo,F,25,NATIVE HAWAIIAN OR OTHER PACIFIC ISLANDER,N,39.350,30.548,-8.803,-0.288,>3% change from baseline,Y,Y,Y,LUNAR,1992-12-18,1994-06-19,548,N/A,N/A,N/A,N/A
101-000023,DXA BMD at Lumbar Spine (g/cm^2),BMDLS,MONTH 24,6,XXX001,Placebo,F,25,NATIVE HAWAIIAN OR OTHER PACIFIC ISLANDER,N,43.419,30.548,-12.871,-0.421,>3% change from baseline,Y,Y,Y,LUNAR,1992-12-18,1994-12-18,730,N/A,N/A,N/A,N/A
101-000023,DXA BMD at Lumbar Spine (g/cm^2),BMDLS,MONTH 30,7,XXX001,Placebo,F,25,NATIVE HAWAIIAN OR OTHER PACIFIC ISLANDER,N,36.844,30.548,-6.297,-0.206,>3% change from baseline,Y,Y,Y,LUNAR,1992-12-18,1995-06-19,913,N/A,N/A,N/A,N/A
101-000023,DXA BMD at Lumbar Spine (g/cm^2),BMDLS,MONTH 36,8,XXX001,Placebo,F,25,NATIVE HAWAIIAN OR OTHER PACIFIC ISLANDER,N,29.888,30.548,0.660,0.022,,,Y,Y,LUNAR,1992-12-18,1995-12-18,1095,N/A,N/A,N/A,N/A
101-000024,DXA BMD at Lumbar Spine (g/cm^2),BMDLS,BASELINE,2,XXX001,Placebo,M,54,WHITE,N,47.590,15.163,-32.427,-2.139,>3% change from baseline,Y,Y,Y,LUNAR,1992-12-15,1992-12-15,0,N/A,N/A,N/A,N/A
101-000024,DXA BMD at Lumbar Spine (g/cm^2),BMDLS,MONTH 6,3,XXX001,Placebo,M,54,WHITE,N,21.173,15.163,-6.010,-0.396,>3% change from baseline,Y,Y,Y,LUNAR,1992-12-15,1993-06-16,183,N/A,N/A,N/A,N/A
101-000024,DXA BMD at Lumbar Spine (g/cm^2),BMDLS,MONTH 12,4,XXX001,Placebo,M,54,WHITE,N,18.618,15.163,-3.455,-0.228,>3% change from baseline,Y,Y,Y,LUNAR,1992-12-15,1993-12-15,365,N/A,N/A,N/A,N/A
101-000024,DXA BMD at Lumbar Spine (g/cm^2),BMDLS,MONTH 18,5,XXX001,Placebo,M,54,WHITE,N,12.080,15.163,3.084,0.203,>3% change from baseline,Y,Y,Y,LUNAR,1992-12-15,1994-06-16,548,N/A,N/A,N/A,N/A
101-000024,DXA BMD at Lumbar Spine (g/cm^2),BMDLS,MONTH 24,6,XXX001,Placebo,M,54,WHITE,N,16.472,15.163,-1.309,-0.086,>3% change from baseline,Y,Y,Y,LUNAR,1992-12-15,1994-12-15,730,N/A,N/A,N/A,N/A
101-000024,DXA BMD at Lumbar Spine (g/cm^2),BMDLS,MONTH 30,7,XXX001,Placebo,M,54,WHITE,N,47.392,15.163,-32.228,-2.125,>3% change from baseline,Y,Y,Y,LUNAR,1992-12-15,1995-06-16,913,N/A,N/A,N/A,N/A
101-000024,DXA BMD at Lumbar Spine (g/cm^2),BMDLS,MONTH 36,8,XXX001,Placebo,M,54,WHITE,N,43.013,15.163,-27.850,-1.837,>3% change from baseline,Y,Y,Y,LUNAR,1992-12-15,1995-12-15,1095,N/A,N/A,N/A,N/A
101-000025,DXA BMD at Lumbar Spine (g/cm^2),BMDLS,BASELINE,2,XXX001,Drug ABC,M,85,BLACK OR AFRICAN AMERICAN,Y,39.540,46.082,6.542,0.142,>3% change from baseline,Y,Y,Y,HOLOGIC,1992-11-14,1992-11-14,0,N/A,N/A,N/A,N/A
101-000025,DXA BMD at Lumbar Spine (g/cm^2),BMDLS,MONTH 6,3,XXX001,Drug ABC,M,85,BLACK OR AFRICAN AMERICAN,Y,51.645,46.082,-5.564,-0.121,>3% change from baseline,Y,Y,Y,HOLOGIC,1992-11-14,1993-05-16,183,N/A,N/A,N/A,N/A
101-000025,DXA BMD at Lumbar Spine (g/cm^2),BMDLS,MONTH 12,4,XXX001,Drug ABC,M,85,BLACK OR AFRICAN AMERICAN,Y,16.911,46.082,29.170,0.633,>3% change from baseline,Y,Y,Y,HOLOGIC,1992-11-14,1993-11-14,365,N/A,N/A,N/A,N/A
101-000025,DXA BMD at Lumbar Spine (g/cm^2),BMDLS,MONTH 18,5,XXX001,Drug ABC,M,85,BLACK OR AFRICAN AMERICAN,Y,25.400,46.082,20.682,0.449,>3% change from baseline,Y,Y,Y,HOLOGIC,1992-11-14,1994-05-16,548,N/A,N/A,N/A,N/A
101-000025,DXA BMD at Lumbar Spine (g/cm^2),BMDLS,MONTH 24,6,XXX001,Drug ABC,M,85,BLACK OR AFRICAN AMERICAN,Y,29.087,46.082,16.994,0.369,>3% change from baseline,Y,Y,Y,HOLOGIC,1992-11-14,1994-11-14,730,N/A,N/A,N/A,N/A
101-000025,DXA BMD at Lumbar Spine (g/cm^2),BMDLS,MONTH 30,7,XXX001,Drug ABC,M,85,BLACK OR AFRICAN AMERICAN,Y,15.155,46.082,30.927,0.671,>3% change from baseline,Y,Y,Y,HOLOGIC,1992-11-14,1995-05-16,913,N/A,N/A,N/A,N/A
101-000025,DXA BMD at Lumbar Spine (g/cm^2),BMDLS,MONTH 36,8,XXX001,Drug ABC,M,85,BLACK OR AFRICAN AMERICAN,Y,56.035,46.082,-9.953,-0.216,>3% change from baseline,Y,Y,Y,HOLOGIC,1992-11-14,1995-11-14,1095,N/A,N/A,N/A,N/A
101-000026,DXA BMD at Lumbar Spine (g/cm^2),BMDLS,BASELINE,2,XXX001,Drug ABC,F,79,WHITE,Y,24.737,39.924,15.187,0.380,>3% change from baseline,Y,Y,Y,HOLOGIC,1992-12-07,1992-12-07,0,N/A,N/A,N/A,N/A
101-000026,DXA BMD at Lumbar Spine (g/cm^2),BMDLS,MONTH 6,3,XXX001,Drug ABC,F,79,WHITE,Y,13.221,39.924,26.703,0.669,>3% change from baseline,Y,Y,Y,HOLOGIC,1992-12-07,1993-06-08,183,N/A,N/A,N/A,N/A
101-000026,DXA BMD at Lumbar Spine (g/cm^2),BMDLS,MONTH 12,4,XXX001,Drug ABC,F,79,WHITE,Y,30.137,39.924,9.787,0.245,>3% change from baseline,Y,Y,Y,HOLOGIC,1992-12-07,1993-12-07,365,N/A,N/A,N/A,N/A
101-000026,DXA BMD at Lumbar Spine (g/cm^2),BMDLS,MONTH 18,5,XXX001,Drug ABC,F,79,WHITE,Y,36.909,39.924,3.015,0.076,>3% change from baseline,Y,Y,Y,HOLOGIC,1992-12-07,1994-06-08,548,N/A,N/A,N/A,N/A
101-000026,DXA BMD at Lumbar Spine (g/cm^2),BMDLS,MONTH 24,6,XXX001,Drug ABC,F,79,WHITE,Y,50.495,39.924,-10.572,-0.265,>3% change from baseline,Y,Y,Y,HOLOGIC,1992-12-07,1994-12-07,730,N/A,N/A,N/A,N/A
101-000026,DXA BMD at Lumbar Spine (g/cm^2),BMDLS,MONTH 30,7,XXX001,Drug ABC,F,79,WHITE,Y,31.998,39.924,7.926,0.199,>3% change from baseline,Y,Y,Y,HOLOGIC,1992-12-07,1995-06-08,913,N/A,N/A,N/A,N/A
101-000026,DXA BMD at Lumbar Spine (g/cm^2),BMDLS,MONTH 36,8,XXX001,Drug ABC,F,79,WHITE,Y,46.518,39.924,-6.594,-0.165,>3% change from baseline,Y,Y,Y,HOLOGIC,1992-12-07,1995-12-07,1095,N/A,N/A,N/A,N/A
101-000027,DXA BMD at Lumbar Spine (g/cm^2),BMDLS,BASELINE,2,XXX001,Placebo,M,61,WHITE,N,31.906,26.192,-5.715,-0.218,>3% change from baseline,Y,Y,Y,LUNAR,1992-12-10,1992-12-10,0,N/A,N/A,N/A,N/A
101-000027,DXA BMD at Lumbar Spine (g/cm^2),BMDLS,MONTH 6,3,XXX001,Placebo,M,61,WHITE,N,23.631,26.192,2.560,0.098,>3% change from baseline,Y,Y,Y,LUNAR,1992-12-10,1993-06-11,183,N/A,N/A,N/A,N/A
101-000027,DXA BMD at Lumbar Spine (g/cm^2),BMDLS,MONTH 12,4,XXX001,Placebo,M,61,WHITE,N,49.663,26.192,-23.471,-0.896,>3% change from baseline,Y,Y,Y,LUNAR,1992-12-10,1993-12-10,365,N/A,N/A,N/A,N/A
101-000027,DXA BMD at Lumbar Spine (g/cm^2),BMDLS,MONTH 18,5,XXX001,Placebo,M,61,WHITE,N,43.135,26.192,-16.943,-0.647,>3% change from baseline,Y,Y,Y,LUNAR,1992-12-10,1994-06-11,548,N/A,N/A,N/A,N/A
101-000027,DXA BMD at Lumbar Spine (g/cm^2),BMDLS,MONTH 24,6,XXX001,Placebo,M,61,WHITE,N,45.388,26.192,-19.196,-0.733,>3% change from baseline,Y,Y,Y,LUNAR,1992-12-10,1994-12-10,730,N/A,N/A,N/A,N/A
101-000027,DXA BMD at Lumbar Spine (g/cm^2),BMDLS,MONTH 30,7,XXX001,Placebo,M,61,WHITE,N,36.676,26.192,-10.485,-0.400,>3% change from baseline,Y,Y,Y,LUNAR,1992-12-10,1995-06-11,913,N/A,N/A,N/A,N/A
101-000027,DXA BMD at Lumbar Spine (g/cm^2),BMDLS,MONTH 36,8,XXX001,Placebo,M,61,WHITE,N,26.122,26.192,0.070,0.003,,,Y,Y,LUNAR,1992-12-10,1995-12-10,1095,N/A,N/A,N/A,N/A
101-000028,DXA BMD at Lumbar Spine (g/cm^2),BMDLS,BASELINE,2,XXX001,Placebo,F,75,BLACK OR AFRICAN AMERICAN,N,18.742,18.757,0.015,0.001,,,Y,Y,HOLOGIC,1992-10-30,1992-10-30,0,N/A,N/A,N/A,N/A
101-000028,DXA BMD at Lumbar Spine (g/cm^2),BMDLS,MONTH 6,3,XXX001,Placebo,F,75,BLACK OR AFRICAN AMERICAN,N,21.423,18.757,-2.666,-0.142,>3% change from baseline,Y,Y,Y,HOLOGIC,1992-10-30,1993-05-01,183,N/A,N/A,N/A,N/A
101-000028,DXA BMD at Lumbar Spine (g/cm^2),BMDLS,MONTH 12,4,XXX001,Placebo,F,75,BLACK OR AFRICAN AMERICAN,N,31.632,18.757,-12.875,-0.686,>3% change from baseline,Y,Y,Y,HOLOGIC,1992-10-30,1993-10-30,365,N/A,N/A,N/A,N/A
101-000028,DXA BMD at Lumbar Spine (g/cm^2),BMDLS,MONTH 18,5,XXX001,Placebo,F,75,BLACK OR AFRICAN AMERICAN,N,44.536,18.757,-25.779,-1.374,>3% change from baseline,Y,Y,Y,HOLOGIC,1992-10-30,1994-05-01,548,N/A,N/A,N/A,N/A
101-000028,DXA BMD at Lumbar Spine (g/cm^2),BMDLS,MONTH 24,6,XXX001,Placebo,F,75,BLACK OR AFRICAN AMERICAN,N,22.439,18.757,-3.682,-0.196,>3% change from baseline,Y,Y,Y,HOLOGIC,1992-10-30,1994-10-30,730,N/A,N/A,N/A,N/A
101-000028,DXA BMD at Lumbar Spine (g/cm^2),BMDLS,MONTH 30,7,XXX001,Placebo,F,75,BLACK OR AFRICAN AMERICAN,N,19.998,18.757,-1.241,-0.066,>3% change from baseline,Y,Y,Y,HOLOGIC,1992-10-30,1995-05-01,913,N/A,N/A,N/A,N/A
101-000028,DXA BMD at Lumbar Spine (g/cm^2),BMDLS,MONTH 36,8,XXX001,Placebo,F,75,BLACK OR AFRICAN AMERICAN,N,52.783,18.757,-34.026,-1.814,>3% change from baseline,Y,Y,Y,HOLOGIC,1992-10-30,1995-10-30,1095,N/A,N/A,N/A,N/A
101-000029,DXA BMD at Lumbar Spine (g/cm^2),BMDLS,BASELINE,2,XXX001,Placebo,M,44,WHITE,N,37.845,45.904,8.060,0.176,>3% change from baseline,Y,Y,Y,LUNAR,1992-10-29,1992-10-29,0,N/A,N/A,N/A,N/A
101-000029,DXA BMD at Lumbar Spine (g/cm^2),BMDLS,MONTH 6,3,XXX001,Placebo,M,44,WHITE,N,19.651,45.904,26.254,0.572,>3% change from baseline,Y,Y,Y,LUNAR,1992-10-29,1993-04-30,183,N/A,N/A,N/A,N/A
101-000029,DXA BMD at Lumbar Spine (g/cm^2),BMDLS,MONTH 12,4,XXX001,Placebo,M,44,WHITE,N,12.826,45.904,33.078,0.721,>3% change from baseline,Y,Y,Y,LUNAR,1992-10-29,1993-10-29,365,N/A,N/A,N/A,N/A
101-000029,DXA BMD at Lumbar Spine (g/cm^2),BMDLS,MONTH 18,5,XXX001,Placebo,M,44,WHITE,N,32.304,45.904,13.600,0.296,>3% change from baseline,Y,Y,Y,LUNAR,1992-10-29,1994-04-30,548,N/A,N/A,N/A,N/A
101-000029,DXA BMD at Lumbar Spine (g/cm^2),BMDLS,MONTH 24,6,XXX001,Placebo,M,44,WHITE,N,20.801,45.904,25.104,0.547,>3% change from baseline,Y,Y,Y,LUNAR,1992-10-29,1994-10-29,730,N/A,N/A,N/A,N/A
101-000029,DXA BMD at Lumbar Spine (g/cm^2),BMDLS,MONTH 30,7,XXX001,Placebo,M,44,WHITE,N,51.793,45.904,-5.889,-0.128,>3% change from baseline,Y,Y,Y,LUNAR,1992-10-29,1995-04-30,913,N/A,N/A,N/A,N/A
101-000029,DXA BMD at Lumbar Spine (g/cm^2),BMDLS,MONTH 36,8,XXX001,Placebo,M,44,WHITE,N,16.804,45.904,29.100,0.634,>3% change from baseline,Y,Y,Y,LUNAR,1992-10-29,1995-10-29,1095,N/A,N/A,N/A,N/A
101-000030,DXA BMD at Lumbar Spine (g/cm^2),BMDLS,BASELINE,2,XXX001,Placebo,M,53,BLACK OR AFRICAN AMERICAN,N,11.518,18.707,7.189,0.384,>3% change from baseline,Y,Y,Y,LUNAR,1992-12-04,1992-12-04,0,N/A,N/A,N/A,N/A
101-000030,DXA BMD at Lumbar Spine (g/cm^2),BMDLS,MONTH 6,3,XXX001,Placebo,M,53,BLACK OR AFRICAN AMERICAN,N,45.489,18.707,-26.782,-1.432,>3% change from baseline,Y,Y,Y,LUNAR,1992-12-04,1993-06-05,183,N/A,N/A,N/A,N/A
101-000030,DXA BMD at Lumbar Spine (g/cm^2),BMDLS,MONTH 12,4,XXX001,Placebo,M,53,BLACK OR AFRICAN AMERICAN,N,22.920,18.707,-4.213,-0.225,>3% change from baseline,Y,Y,Y,LUNAR,1992-12-04,1993-12-04,365,N/A,N/A,N/A,N/A
101-000030,DXA BMD at Lumbar Spine (g/cm^2),BMDLS,MONTH 18,5,XXX001,Placebo,M,53,BLACK OR AFRICAN AMERICAN,N,12.431,18.707,6.277,0.336,>3% change from baseline,Y,Y,Y,LUNAR,1992-12-04,1994-06-05,548,N/A,N/A,N/A,N/A
101-000030,DXA BMD at Lumbar Spine (g/cm^2),BMDLS,MONTH 24,6,XXX001,Placebo,M,53,BLACK OR AFRICAN AMERICAN,N,15.276,18.707,3.432,0.183,>3% change from baseline,Y,Y,Y,LUNAR,1992-12-04,1994-12-04,730,N/A,N/A,N/A,N/A
101-000030,DXA BMD at Lumbar Spine (g/cm^2),BMDLS,MONTH 30,7,XXX001,Placebo,M,53,BLACK OR AFRICAN AMERICAN,N,49.235,18.707,-30.527,-1.632,>3% change from baseline,Y,Y,Y,LUNAR,1992-12-04,1995-06-05,913,N/A,N/A,N/A,N/A
101-000030,DXA BMD at Lumbar Spine (g/cm^2),BMDLS,MONTH 36,8,XXX001,Placebo,M,53,BLACK OR AFRICAN AMERICAN,N,24.304,18.707,-5.597,-0.299,>3% change from baseline,Y,Y,Y,LUNAR,1992-12-04,1995-12-04,1095,N/A,N/A,N/A,N/A
101-000031,DXA BMD at Lumbar Spine (g/cm^2),BMDLS,BASELINE,2,XXX001,Drug ABC,F,38,WHITE,Y,19.057,11.976,-7.081,-0.591,>3% change from baseline,Y,Y,Y,LUNAR,1992-11-19,1992-11-19,0,N/A,N/A,N/A,N/A
101-000031,DXA BMD at Lumbar Spine (g/cm^2),BMDLS,MONTH 6,3,XXX001,Drug ABC,F,38,WHITE,Y,48.887,11.976,-36.911,-3.082,>3% change from baseline,Y,Y,Y,LUNAR,1992-11-19,1993-05-21,183,N/A,N/A,N/A,N/A
101-000031,DXA BMD at Lumbar Spine (g/cm^2),BMDLS,MONTH 12,4,XXX001,Drug ABC,F,38,WHITE,Y,43.736,11.976,-31.760,-2.652,>3% change from baseline,Y,Y,Y,LUNAR,1992-11-19,1993-11-19,365,N/A,N/A,N/A,N/A
101-000031,DXA BMD at Lumbar Spine (g/cm^2),BMDLS,MONTH 18,5,XXX001,Drug ABC,F,38,WHITE,Y,20.776,11.976,-8.799,-0.735,>3% change from baseline,Y,Y,Y,LUNAR,1992-11-19,1994-05-21,548,N/A,N/A,N/A,N/A
101-000031,DXA BMD at Lumbar Spine (g/cm^2),BMDLS,MONTH 24,6,XXX001,Drug ABC,F,38,WHITE,Y,30.776,11.976,-18.800,-1.570,>3% change from baseline,Y,Y,Y,LUNAR,1992-11-19,1994-11-19,730,N/A,N/A,N/A,N/A
101-000031,DXA BMD at Lumbar Spine (g/cm^2),BMDLS,MONTH 30,7,XXX001,Drug ABC,F,38,WHITE,Y,37.877,11.976,-25.900,-2.163,>3% change from baseline,Y,Y,Y,LUNAR,1992-11-19,1995-05-21,913,N/A,N/A,N/A,N/A
101-000031,DXA BMD at Lumbar Spine (g/cm^2),BMDLS,MONTH 36,8,XXX001,Drug ABC,F,38,WHITE,Y,20.620,11.976,-8.644,-0.722,>3% change from baseline,Y,Y,Y,LUNAR,1992-11-19,1995-11-19,1095,N/A,N/A,N/A,N/A
101-000032,DXA BMD at Lumbar Spine (g/cm^2),BMDLS,BASELINE,2,XXX001,Placebo,M,37,AMERICAN INDIAN OR ALASKA NATIVE,N,17.326,23.894,6.568,0.275,>3% change from baseline,Y,Y,Y,HOLOGIC,1992-11-07,1992-11-07,0,N/A,N/A,N/A,N/A
101-000032,DXA BMD at Lumbar Spine (g/cm^2),BMDLS,MONTH 6,3,XXX001,Placebo,M,37,AMERICAN INDIAN OR ALASKA NATIVE,N,32.740,23.894,-8.846,-0.370,>3% change from baseline,Y,Y,Y,HOLOGIC,1992-11-07,1993-05-09,183,N/A,N/A,N/A,N/A
101-000032,DXA BMD at Lumbar Spine (g/cm^2),BMDLS,MONTH 12,4,XXX001,Placebo,M,37,AMERICAN INDIAN OR ALASKA NATIVE,N,24.396,23.894,-0.502,-0.021,,,Y,Y,HOLOGIC,1992-11-07,1993-11-07,365,N/A,N/A,N/A,N/A
101-000032,DXA BMD at Lumbar Spine (g/cm^2),BMDLS,MONTH 18,5,XXX001,Placebo,M,37,AMERICAN INDIAN OR ALASKA NATIVE,N,56.075,23.894,-32.182,-1.347,>3% change from baseline,Y,Y,Y,HOLOGIC,1992-11-07,1994-05-09,548,N/A,N/A,N/A,N/A
101-000032,DXA BMD at Lumbar Spine (g/cm^2),BMDLS,MONTH 24,6,XXX001,Placebo,M,37,AMERICAN INDIAN OR ALASKA NATIVE,N,53.452,23.894,-29.558,-1.237,>3% change from baseline,Y,Y,Y,HOLOGIC,1992-11-07,1994-11-07,730,N/A,N/A,N/A,N/A
101-000032,DXA BMD at Lumbar Spine (g/cm^2),BMDLS,MONTH 30,7,XXX001,Placebo,M,37,AMERICAN INDIAN OR ALASKA NATIVE,N,52.346,23.894,-28.452,-1.191,>3% change from baseline,Y,Y,Y,HOLOGIC,1992-11-07,1995-05-09,913,N/A,N/A,N/A,N/A
101-000032,DXA BMD at Lumbar Spine (g/cm^2),BMDLS,MONTH 36,8,XXX001,Placebo,M,37,AMERICAN INDIAN OR ALASKA NATIVE,N,13.874,23.894,10.020,0.419,>3% change from baseline,Y,Y,Y,HOLOGIC,1992-11-07,1995-11-07,1095,N/A,N/A,N/A,N/A
101-000033,DXA BMD at Lumbar Spine (g/cm^2),BMDLS,BASELINE,2,XXX001,Drug ABC,M,71,NATIVE HAWAIIAN OR OTHER PACIFIC ISLANDER,Y,25.355,32.355,6.999,0.216,>3% change from baseline,Y,Y,Y,HOLOGIC,1992-12-13,1992-12-13,0,N/A,N/A,N/A,N/A
101-000033,DXA BMD at Lumbar Spine (g/cm^2),BMDLS,MONTH 6,3,XXX001,Drug ABC,M,71,NATIVE HAWAIIAN OR OTHER PACIFIC ISLANDER,Y,41.489,32.355,-9.134,-0.282,>3% change from baseline,Y,Y,Y,HOLOGIC,1992-12-13,1993-06-14,183,N/A,N/A,N/A,N/A
101-000033,DXA BMD at Lumbar Spine (g/cm^2),BMDLS,MONTH 12,4,XXX001,Drug ABC,M,71,NATIVE HAWAIIAN OR OTHER PACIFIC ISLANDER,Y,28.235,32.355,4.120,0.127,>3% change from baseline,Y,Y,Y,HOLOGIC,1992-12-13,1993-12-13,365,N/A,N/A,N/A,N/A
101-000033,DXA BMD at Lumbar Spine (g/cm^2),BMDLS,MONTH 18,5,XXX001,Drug ABC,M,71,NATIVE HAWAIIAN OR OTHER PACIFIC ISLANDER,Y,36.484,32.355,-4.129,-0.128,>3% change from baseline,Y,Y,Y,HOLOGIC,1992-12-13,1994-06-14,548,N/A,N/A,N/A,N/A
101-000033,DXA BMD at Lumbar Spine (g/cm^2),BMDLS,MONTH 24,6,XXX001,Drug ABC,M,71,NATIVE HAWAIIAN OR OTHER PACIFIC ISLANDER,Y,30.487,32.355,1.867,0.058,>3% change from baseline,Y,Y,Y,HOLOGIC,1992-12-13,1994-12-13,730,N/A,N/A,N/A,N/A
101-000033,DXA BMD at Lumbar Spine (g/cm^2),BMDLS,MONTH 30,7,XXX001,Drug ABC,M,71,NATIVE HAWAIIAN OR OTHER PACIFIC ISLANDER,Y,41.141,32.355,-8.786,-0.272,>3% change from baseline,Y,Y,Y,HOLOGIC,1992-12-13,1995-06-14,913,N/A,N/A,N/A,N/A
101-000033,DXA BMD at Lumbar Spine (g/cm^2),BMDLS,MONTH 36,8,XXX001,Drug ABC,M,71,NATIVE HAWAIIAN OR OTHER PACIFIC ISLANDER,Y,50.225,32.355,-17.870,-0.552,>3% change from baseline,Y,Y,Y,HOLOGIC,1992-12-13,1995-12-13,1095,N/A,N/A,N/A,N/A
101-000034,DXA BMD at Lumbar Spine (g/cm^2),BMDLS,BASELINE,2,XXX001,Placebo,M,46,WHITE,N,14.969,30.891,15.922,0.515,>3% change from baseline,Y,Y,Y,LUNAR,1992-11-08,1992-11-08,0,N/A,N/A,N/A,N/A
101-000034,DXA BMD at Lumbar Spine (g/cm^2),BMDLS,MONTH 6,3,XXX001,Placebo,M,46,WHITE,N,28.152,30.891,2.739,0.089,>3% change from baseline,Y,Y,Y,LUNAR,1992-11-08,1993-05-10,183,N/A,N/A,N/A,N/A
101-000034,DXA BMD at Lumbar Spine (g/cm^2),BMDLS,MONTH 12,4,XXX001,Placebo,M,46,WHITE,N,20.083,30.891,10.807,0.350,>3% change from baseline,Y,Y,Y,LUNAR,1992-11-08,1993-11-08,365,N/A,N/A,N/A,N/A
101-000034,DXA BMD at Lumbar Spine (g/cm^2),BMDLS,MONTH 18,5,XXX001,Placebo,M,46,WHITE,N,38.798,30.891,-7.908,-0.256,>3% change from baseline,Y,Y,Y,LUNAR,1992-11-08,1994-05-10,548,N/A,N/A,N/A,N/A
101-000034,DXA BMD at Lumbar Spine (g/cm^2),BMDLS,MONTH 24,6,XXX001,Placebo,M,46,WHITE,N,40.565,30.891,-9.675,-0.313,>3% change from baseline,Y,Y,Y,LUNAR,1992-11-08,1994-11-08,730,N/A,N/A,N/A,N/A
101-000034,DXA BMD at Lumbar Spine (g/cm^2),BMDLS,MONTH 30,7,XXX001,Placebo,M,46,WHITE,N,29.326,30.891,1.564,0.051,>3% change from baseline,Y,Y,Y,LUNAR,1992-11-08,1995-05-10,913,N/A,N/A,N/A,N/A
101-000034,DXA BMD at Lumbar Spine (g/cm^2),BMDLS,MONTH 36,8,XXX001,Placebo,M,46,WHITE,N,36.808,30.891,-5.918,-0.192,>3% change from baseline,Y,Y,Y,LUNAR,1992-11-08,1995-11-08,1095,N/A,N/A,N/A,N/A
101-000035,DXA BMD at Lumbar Spine (g/cm^2),BMDLS,BASELINE,2,XXX001,Placebo,M,37,BLACK OR AFRICAN AMERICAN,N,52.748,16.638,-36.109,-2.170,>3% change from baseline,Y,Y,Y,HOLOGIC,1992-12-01,1992-12-01,0,N/A,N/A,N/A,N/A
101-000035,DXA BMD at Lumbar Spine (g/cm^2),BMDLS,MONTH 6,3,XXX001,Placebo,M,37,BLACK OR AFRICAN AMERICAN,N,38.692,16.638,-22.053,-1.325,>3% change from baseline,Y,Y,Y,HOLOGIC,1992-12-01,1993-06-02,183,N/A,N/A,N/A,N/A
101-000035,DXA BMD at Lumbar Spine (g/cm^2),BMDLS,MONTH 12,4,XXX001,Placebo,M,37,BLACK OR AFRICAN AMERICAN,N,16.779,16.638,-0.141,-0.008,,,Y,Y,HOLOGIC,1992-12-01,1993-12-01,365,N/A,N/A,N/A,N/A
101-000035,DXA BMD at Lumbar Spine (g/cm^2),BMDLS,MONTH 18,5,XXX001,Placebo,M,37,BLACK OR AFRICAN AMERICAN,N,26.599,16.638,-9.960,-0.599,>3% change from baseline,Y,Y,Y,HOLOGIC,1992-12-01,1994-06-02,548,N/A,N/A,N/A,N/A
101-000035,DXA BMD at Lumbar Spine (g/cm^2),BMDLS,MONTH 24,6,XXX001,Placebo,M,37,BLACK OR AFRICAN AMERICAN,N,46.894,16.638,-30.256,-1.818,>3% change from baseline,Y,Y,Y,HOLOGIC,1992-12-01,1994-12-01,730,N/A,N/A,N/A,N/A
101-000035,DXA BMD at Lumbar Spine (g/cm^2),BMDLS,MONTH 30,7,XXX001,Placebo,M,37,BLACK OR AFRICAN AMERICAN,N,29.478,16.638,-12.839,-0.772,>3% change from baseline,Y,Y,Y,HOLOGIC,1992-12-01,1995-06-02,913,N/A,N/A,N/A,N/A
101-000035,DXA BMD at Lumbar Spine (g/cm^2),BMDLS,MONTH 36,8,XXX001,Placebo,M,37,BLACK OR AFRICAN AMERICAN,N,20.603,16.638,-3.964,-0.238,>3% change from baseline,Y,Y,Y,HOLOGIC,1992-12-01,1995-12-01,1095,N/A,N/A,N/A,N/A
101-000036,DXA BMD at Lumbar Spine (g/cm^2),BMDLS,BASELINE,2,XXX001,Placebo,M,29,WHITE,N,29.045,26.222,-2.823,-0.108,>3% change from baseline,Y,Y,Y,LUNAR,1992-11-22,1992-11-22,0,N/A,N/A,N/A,N/A
101-000036,DXA BMD at Lumbar Spine (g/cm^2),BMDLS,MONTH 6,3,XXX001,Placebo,M,29,WHITE,N,45.186,26.222,-18.964,-0.723,>3% change from baseline,Y,Y,Y,LUNAR,1992-11-22,1993-05-24,183,N/A,N/A,N/A,N/A
101-000036,DXA BMD at Lumbar Spine (g/cm^2),BMDLS,MONTH 12,4,XXX001,Placebo,M,29,WHITE,N,40.662,26.222,-14.440,-0.551,>3% change from baseline,Y,Y,Y,LUNAR,1992-11-22,1993-11-22,365,N/A,N/A,N/A,N/A
101-000036,DXA BMD at Lumbar Spine (g/cm^2),BMDLS,MONTH 18,5,XXX001,Placebo,M,29,WHITE,N,53.997,26.222,-27.775,-1.059,>3% change from baseline,Y,Y,Y,LUNAR,1992-11-22,1994-05-24,548,N/A,N/A,N/A,N/A
101-000036,DXA BMD at Lumbar Spine (g/cm^2),BMDLS,MONTH 24,6,XXX001,Placebo,M,29,WHITE,N,18.961,26.222,7.261,0.277,>3% change from baseline,Y,Y,Y,LUNAR,1992-11-22,1994-11-22,730,N/A,N/A,N/A,N/A
101-000036,DXA BMD at Lumbar Spine (g/cm^2),BMDLS,MONTH 30,7,XXX001,Placebo,M,29,WHITE,N,30.634,26.222,-4.412,-0.168,>3% change from baseline,Y,Y,Y,LUNAR,1992-11-22,1995-05-24,913,N/A,N/A,N/A,N/A
101-000036,DXA BMD at Lumbar Spine (g/cm^2),BMDLS,MONTH 36,8,XXX001,Placebo,M,29,WHITE,N,32.287,26.222,-6.065,-0.231,>3% change from baseline,Y,Y,Y,LUNAR,1992-11-22,1995-11-22,1095,N/A,N/A,N/A,N/A
101-000037,DXA BMD at Lumbar Spine (g/cm^2),BMDLS,BASELINE,2,XXX001,Placebo,M,33,BLACK OR AFRICAN AMERICAN,N,38.954,28.707,-10.247,-0.357,>3% change from baseline,Y,Y,Y,LUNAR,1992-11-03,1992-11-03,0,N/A,N/A,N/A,N/A
101-000037,DXA BMD at Lumbar Spine (g/cm^2),BMDLS,MONTH 6,3,XXX001,Placebo,M,33,BLACK OR AFRICAN AMERICAN,N,38.400,28.707,-9.693,-0.338,>3% change from baseline,Y,Y,Y,LUNAR,1992-11-03,1993-05-05,183,N/A,N/A,N/A,N/A
101-000037,DXA BMD at Lumbar Spine (g/cm^2),BMDLS,MONTH 12,4,XXX001,Placebo,M,33,BLACK OR AFRICAN AMERICAN,N,22.397,28.707,6.310,0.220,>3% change from baseline,Y,Y,Y,LUNAR,1992-11-03,1993-11-03,365,N/A,N/A,N/A,N/A
101-000037,DXA BMD at Lumbar Spine (g/cm^2),BMDLS,MONTH 18,5,XXX001,Placebo,M,33,BLACK OR AFRICAN AMERICAN,N,28.062,28.707,0.645,0.022,,,Y,Y,LUNAR,1992-11-03,1994-05-05,548,N/A,N/A,N/A,N/A
101-000037,DXA BMD at Lumbar Spine (g/cm^2),BMDLS,MONTH 24,6,XXX001,Placebo,M,33,BLACK OR AFRICAN AMERICAN,N,33.919,28.707,-5.212,-0.182,>3% change from baseline,Y,Y,Y,LUNAR,1992-11-03,1994-11-03,730,N/A,N/A,N/A,N/A
101-000037,DXA BMD at Lumbar Spine (g/cm^2),BMDLS,MONTH 30,7,XXX001,Placebo,M,33,BLACK OR AFRICAN AMERICAN,N,47.834,28.707,-19.127,-0.666,>3% change from baseline,Y,Y,Y,LUNAR,1992-11-03,1995-05-05,913,N/A,N/A,N/A,N/A
101-000037,DXA BMD at Lumbar Spine (g/cm^2),BMDLS,MONTH 36,8,XXX001,Placebo,M,33,BLACK OR AFRICAN AMERICAN,N,16.735,28.707,11.972,0.417,>3% change from baseline,Y,Y,Y,LUNAR,1992-11-03,1995-11-03,1095,N/A,N/A,N/A,N/A
101-000038,DXA BMD at Lumbar Spine (g/cm^2),BMDLS,BASELINE,2,XXX001,Placebo,F,23,WHITE,N,19.927,41.170,21.243,0.516,>3% change from baseline,Y,Y,Y,LUNAR,1992-12-08,1992-12-08,0,N/A,N/A,N/A,N/A
101-000038,DXA BMD at Lumbar Spine (g/cm^2),BMDLS,MONTH 6,3,XXX001,Placebo,F,23,WHITE,N,14.752,41.170,26.419,0.642,>3% change from baseline,Y,Y,Y,LUNAR,1992-12-08,1993-06-09,183,N/A,N/A,N/A,N/A
101-000038,DXA BMD at Lumbar Spine (g/cm^2),BMDLS,MONTH 12,4,XXX001,Placebo,F,23,WHITE,N,21.558,41.170,19.613,0.476,>3% change from baseline,Y,Y,Y,LUNAR,1992-12-08,1993-12-08,365,N/A,N/A,N/A,N/A
101-000038,DXA BMD at Lumbar Spine (g/cm^2),BMDLS,MONTH 18,5,XXX001,Placebo,F,23,WHITE,N,44.862,41.170,-3.692,-0.090,>3% change from baseline,Y,Y,Y,LUNAR,1992-12-08,1994-06-09,548,N/A,N/A,N/A,N/A
101-000038,DXA BMD at Lumbar Spine (g/cm^2),BMDLS,MONTH 24,6,XXX001,Placebo,F,23,WHITE,N,40.755,41.170,0.415,0.010,,,Y,Y,LUNAR,1992-12-08,1994-12-08,730,N/A,N/A,N/A,N/A
101-000038,DXA BMD at Lumbar Spine (g/cm^2),BMDLS,MONTH 30,7,XXX001,Placebo,F,23,WHITE,N,16.867,41.170,24.304,0.590,>3% change from baseline,Y,Y,Y,LUNAR,1992-12-08,1995-06-09,913,N/A,N/A,N/A,N/A
101-000038,DXA BMD at Lumbar Spine (g/cm^2),BMDLS,MONTH 36,8,XXX001,Placebo,F,23,WHITE,N,43.113,41.170,-1.943,-0.047,>3% change from baseline,Y,Y,Y,LUNAR,1992-12-08,1995-12-08,1095,N/A,N/A,N/A,N/A
101-000039,DXA BMD at Lumbar Spine (g/cm^2),BMDLS,BASELINE,2,XXX001,Placebo,F,66,ASIAN,N,52.340,45.401,-6.939,-0.153,>3% change from baseline,Y,Y,Y,HOLOGIC,1992-11-01,1992-11-01,0,N/A,N/A,N/A,N/A
101-000039,DXA BMD at Lumbar Spine (g/cm^2),BMDLS,MONTH 6,3,XXX001,Placebo,F,66,ASIAN,N,36.335,45.401,9.066,0.200,>3% change from baseline,Y,Y,Y,HOLOGIC,1992-11-01,1993-05-03,183,N/A,N/A,N/A,N/A
101-000039,DXA BMD at Lumbar Spine (g/cm^2),BMDLS,MONTH 12,4,XXX001,Placebo,F,66,ASIAN,N,32.407,45.401,12.993,0.286,>3% change from baseline,Y,Y,Y,HOLOGIC,1992-11-01,1993-11-01,365,N/A,N/A,N/A,N/A
101-000039,DXA BMD at Lumbar Spine (g/cm^2),BMDLS,MONTH 18,5,XXX001,Placebo,F,66,ASIAN,N,49.202,45.401,-3.801,-0.084,>3% change from baseline,Y,Y,Y,HOLOGIC,1992-11-01,1994-05-03,548,N/A,N/A,N/A,N/A
101-000039,DXA BMD at Lumbar Spine (g/cm^2),BMDLS,MONTH 24,6,XXX001,Placebo,F,66,ASIAN,N,22.566,45.401,22.835,0.503,>3% change from baseline,Y,Y,Y,HOLOGIC,1992-11-01,1994-11-01,730,N/A,N/A,N/A,N/A
101-000039,DXA BMD at Lumbar Spine (g/cm^2),BMDLS,MONTH 30,7,XXX001,Placebo,F,66,ASIAN,N,50.203,45.401,-4.803,-0.106,>3% change from baseline,Y,Y,Y,HOLOGIC,1992-11-01,1995-05-03,913,N/A,N/A,N/A,N/A
101-000039,DXA BMD at Lumbar Spine (g/cm^2),BMDLS,MONTH 36,8,XXX001,Placebo,F,66,ASIAN,N,25.087,45.401,20.314,0.447,>3% change from baseline,Y,Y,Y,HOLOGIC,1992-11-01,1995-11-01,1095,N/A,N/A,N/A,N/A
101-000040,DXA BMD at Lumbar Spine (g/cm^2),BMDLS,BASELINE,2,XXX001,Placebo,M,88,AMERICAN INDIAN OR ALASKA NATIVE,N,39.921,50.676,10.756,0.212,>3% change from baseline,Y,Y,Y,LUNAR,1992-12-18,1992-12-18,0,N/A,N/A,N/A,N/A
101-000040,DXA BMD at Lumbar Spine (g/cm^2),BMDLS,MONTH 6,3,XXX001,Placebo,M,88,AMERICAN INDIAN OR ALASKA NATIVE,N,41.856,50.676,8.820,0.174,>3% change from baseline,Y,Y,Y,LUNAR,1992-12-18,1993-06-19,183,N/A,N/A,N/A,N/A
101-000040,DXA BMD at Lumbar Spine (g/cm^2),BMDLS,MONTH 12,4,XXX001,Placebo,M,88,AMERICAN INDIAN OR ALASKA NATIVE,N,25.984,50.676,24.692,0.487,>3% change from baseline,Y,Y,Y,LUNAR,1992-12-18,1993-12-18,365,N/A,N/A,N/A,N/A
101-000040,DXA BMD at Lumbar Spine (g/cm^2),BMDLS,MONTH 18,5,XXX001,Placebo,M,88,AMERICAN INDIAN OR ALASKA NATIVE,N,50.943,50.676,-0.266,-0.005,,,Y,Y,LUNAR,1992-12-18,1994-06-19,548,N/A,N/A,N/A,N/A
101-000040,DXA BMD at Lumbar Spine (g/cm^2),BMDLS,MONTH 24,6,XXX001,Placebo,M,88,AMERICAN INDIAN OR ALASKA NATIVE,N,22.026,50.676,28.651,0.565,>3% change from baseline,Y,Y,Y,LUNAR,1992-12-18,1994-12-18,730,N/A,N/A,N/A,N/A
101-000040,DXA BMD at Lumbar Spine (g/cm^2),BMDLS,MONTH 30,7,XXX001,Placebo,M,88,AMERICAN INDIAN OR ALASKA NATIVE,N,11.383,50.676,39.293,0.775,>3% change from baseline,Y,Y,Y,LUNAR,1992-12-18,1995-06-19,913,N/A,N/A,N/A,N/A
101-000040,DXA BMD at Lumbar Spine (g/cm^2),BMDLS,MONTH 36,8,XXX001,Placebo,M,88,AMERICAN INDIAN OR ALASKA NATIVE,N,22.258,50.676,28.418,0.561,>3% change from baseline,Y,Y,Y,LUNAR,1992-12-18,1995-12-18,1095,N/A,N/A,N/A,N/A
101-000041,DXA BMD at Lumbar Spine (g/cm^2),BMDLS,BASELINE,2,XXX001,Drug ABC,F,76,WHITE,Y,37.537,49.571,12.034,0.243,>3% change from baseline,Y,Y,Y,LUNAR,1992-10-30,1992-10-30,0,N/A,N/A,N/A,N/A
101-000041,DXA BMD at Lumbar Spine (g/cm^2),BMDLS,MONTH 6,3,XXX001,Drug ABC,F,76,WHITE,Y,22.133,49.571,27.438,0.554,>3% change from baseline,Y,Y,Y,LUNAR,1992-10-30,1993-05-01,183,N/A,N/A,N/A,N/A
101-000041,DXA BMD at Lumbar Spine (g/cm^2),BMDLS,MONTH 12,4,XXX001,Drug ABC,F,76,WHITE,Y,16.182,49.571,33.390,0.674,>3% change from baseline,Y,Y,Y,LUNAR,1992-10-30,1993-10-30,365,N/A,N/A,N/A,N/A
101-000041,DXA BMD at Lumbar Spine (g/cm^2),BMDLS,MONTH 18,5,XXX001,Drug ABC,F,76,WHITE,Y,21.470,49.571,28.101,0.567,>3% change from baseline,Y,Y,Y,LUNAR,1992-10-30,1994-05-01,548,N/A,N/A,N/A,N/A
101-000041,DXA BMD at Lumbar Spine (g/cm^2),BMDLS,MONTH 24,6,XXX001,Drug ABC,F,76,WHITE,Y,23.541,49.571,26.030,0.525,>3% change from baseline,Y,Y,Y,LUNAR,1992-10-30,1994-10-30,730,N/A,N/A,N/A,N/A
101-000041,DXA BMD at Lumbar Spine (g/cm^2),BMDLS,MONTH 30,7,XXX001,Drug ABC,F,76,WHITE,Y,30.649,49.571,18.922,0.382,>3% change from baseline,Y,Y,Y,LUNAR,1992-10-30,1995-05-01,913,N/A,N/A,N/A,N/A
101-000041,DXA BMD at Lumbar Spine (g/cm^2),BMDLS,MONTH 36,8,XXX001,Drug ABC,F,76,WHITE,Y,19.772,49.571,29.799,0.601,>3% change from baseline,Y,Y,Y,LUNAR,1992-10-30,1995-10-30,1095,N/A,N/A,N/A,N/A
101-000042,DXA BMD at Lumbar Spine (g/cm^2),BMDLS,BASELINE,2,XXX001,Placebo,M,58,WHITE,N,38.729,49.609,10.880,0.219,>3% change from baseline,Y,Y,Y,HOLOGIC,1992-12-03,1992-12-03,0,N/A,N/A,N/A,N/A
101-000042,DXA BMD at Lumbar Spine (g/cm^2),BMDLS,MONTH 6,3,XXX001,Placebo,M,58,WHITE,N,46.468,49.609,3.141,0.063,>3% change from baseline,Y,Y,Y,HOLOGIC,1992-12-03,1993-06-04,183,N/A,N/A,N/A,N/A
101-000042,DXA BMD at Lumbar Spine (g/cm^2),BMDLS,MONTH 12,4,XXX001,Placebo,M,58,WHITE,N,29.393,49.609,20.216,0.408,>3% change from baseline,Y,Y,Y,HOLOGIC,1992-12-03,1993-12-03,365,N/A,N/A,N/A,N/A
101-000042,DXA BMD at Lumbar Spine (g/cm^2),BMDLS,MONTH 18,5,XXX001,Placebo,M,58,WHITE,N,29.784,49.609,19.826,0.400,>3% change from baseline,Y,Y,Y,HOLOGIC,1992-12-03,1994-06-04,548,N/A,N/A,N/A,N/A
101-000042,DXA BMD at Lumbar Spine (g/cm^2),BMDLS,MONTH 24,6,XXX001,Placebo,M,58,WHITE,N,45.281,49.609,4.328,0.087,>3% change from baseline,Y,Y,Y,HOLOGIC,1992-12-03,1994-12-03,730,N/A,N/A,N/A,N/A
101-000042,DXA BMD at Lumbar Spine (g/cm^2),BMDLS,MONTH 30,7,XXX001,Placebo,M,58,WHITE,N,28.312,49.609,21.297,0.429,>3% change from baseline,Y,Y,Y,HOLOGIC,1992-12-03,1995-06-04,913,N/A,N/A,N/A,N/A
101-000042,DXA BMD at Lumbar Spine (g/cm^2),BMDLS,MONTH 36,8,XXX001,Placebo,M,58,WHITE,N,47.766,49.609,1.843,0.037,>3% change from baseline,Y,Y,Y,HOLOGIC,1992-12-03,1995-12-03,1095,N/A,N/A,N/A,N/A
101-000043,DXA BMD at Lumbar Spine (g/cm^2),BMDLS,BASELINE,2,XXX001,Drug ABC,M,67,WHITE,Y,35.177,15.086,-20.092,-1.332,>3% change from baseline,Y,Y,Y,LUNAR,1992-11-18,1992-11-18,0,N/A,N/A,N/A,N/A
101-000043,DXA BMD at Lumbar Spine (g/cm^2),BMDLS,MONTH 6,3,XXX001,Drug ABC,M,67,WHITE,Y,26.408,15.086,-11.323,-0.751,>3% change from baseline,Y,Y,Y,LUNAR,1992-11-18,1993-05-20,183,N/A,N/A,N/A,N/A
101-000043,DXA BMD at Lumbar Spine (g/cm^2),BMDLS,MONTH 12,4,XXX001,Drug ABC,M,67,WHITE,Y,33.178,15.086,-18.092,-1.199,>3% change from baseline,Y,Y,Y,LUNAR,1992-11-18,1993-11-18,365,N/A,N/A,N/A,N/A
101-000043,DXA BMD at Lumbar Spine (g/cm^2),BMDLS,MONTH 18,5,XXX001,Drug ABC,M,67,WHITE,Y,55.968,15.086,-40.882,-2.710,>3% change from baseline,Y,Y,Y,LUNAR,1992-11-18,1994-05-20,548,N/A,N/A,N/A,N/A
101-000043,DXA BMD at Lumbar Spine (g/cm^2),BMDLS,MONTH 24,6,XXX001,Drug ABC,M,67,WHITE,Y,44.747,15.086,-29.661,-1.966,>3% change from baseline,Y,Y,Y,LUNAR,1992-11-18,1994-11-18,730,N/A,N/A,N/A,N/A
101-000043,DXA BMD at Lumbar Spine (g/cm^2),BMDLS,MONTH 30,7,XXX001,Drug ABC,M,67,WHITE,Y,50.821,15.086,-35.735,-2.369,>3% change from baseline,Y,Y,Y,LUNAR,1992-11-18,1995-05-20,913,N/A,N/A,N/A,N/A
101-000043,DXA BMD at Lumbar Spine (g/cm^2),BMDLS,MONTH 36,8,XXX001,Drug ABC,M,67,WHITE,Y,54.280,15.086,-39.194,-2.598,>3% change from baseline,Y,Y,Y,LUNAR,1992-11-18,1995-11-18,1095,N/A,N/A,N/A,N/A
101-000044,DXA BMD at Lumbar Spine (g/cm^2),BMDLS,BASELINE,2,XXX001,Placebo,M,74,ASIAN,N,17.650,48.758,31.107,0.638,>3% change from baseline,Y,Y,Y,HOLOGIC,1992-10-30,1992-10-30,0,N/A,N/A,N/A,N/A
101-000044,DXA BMD at Lumbar Spine (g/cm^2),BMDLS,MONTH 6,3,XXX001,Placebo,M,74,ASIAN,N,44.564,48.758,4.194,0.086,>3% change from baseline,Y,Y,Y,HOLOGIC,1992-10-30,1993-05-01,183,N/A,N/A,N/A,N/A
101-000044,DXA BMD at Lumbar Spine (g/cm^2),BMDLS,MONTH 12,4,XXX001,Placebo,M,74,ASIAN,N,20.875,48.758,27.883,0.572,>3% change from baseline,Y,Y,Y,HOLOGIC,1992-10-30,1993-10-30,365,N/A,N/A,N/A,N/A
101-000044,DXA BMD at Lumbar Spine (g/cm^2),BMDLS,MONTH 18,5,XXX001,Placebo,M,74,ASIAN,N,54.760,48.758,-6.003,-0.123,>3% change from baseline,Y,Y,Y,HOLOGIC,1992-10-30,1994-05-01,548,N/A,N/A,N/A,N/A
101-000044,DXA BMD at Lumbar Spine (g/cm^2),BMDLS,MONTH 24,6,XXX001,Placebo,M,74,ASIAN,N,49.364,48.758,-0.607,-0.012,,,Y,Y,HOLOGIC,1992-10-30,1994-10-30,730,N/A,N/A,N/A,N/A
101-000044,DXA BMD at Lumbar Spine (g/cm^2),BMDLS,MONTH 30,7,XXX001,Placebo,M,74,ASIAN,N,30.759,48.758,17.999,0.369,>3% change from baseline,Y,Y,Y,HOLOGIC,1992-10-30,1995-05-01,913,N/A,N/A,N/A,N/A
101-000044,DXA BMD at Lumbar Spine (g/cm^2),BMDLS,MONTH 36,8,XXX001,Placebo,M,74,ASIAN,N,36.548,48.758,12.209,0.250,>3% change from baseline,Y,Y,Y,HOLOGIC,1992-10-30,1995-10-30,1095,N/A,N/A,N/A,N/A
101-000045,DXA BMD at Lumbar Spine (g/cm^2),BMDLS,BASELINE,2,XXX001,Placebo,M,43,NATIVE HAWAIIAN OR OTHER PACIFIC ISLANDER,N,52.348,31.547,-20.801,-0.659,>3% change from baseline,Y,Y,Y,HOLOGIC,1992-12-04,1992-12-04,0,N/A,N/A,N/A,N/A
101-000045,DXA BMD at Lumbar Spine (g/cm^2),BMDLS,MONTH 6,3,XXX001,Placebo,M,43,NATIVE HAWAIIAN OR OTHER PACIFIC ISLANDER,N,17.122,31.547,14.425,0.457,>3% change from baseline,Y,Y,Y,HOLOGIC,1992-12-04,1993-06-05,183,N/A,N/A,N/A,N/A
101-000045,DXA BMD at Lumbar Spine (g/cm^2),BMDLS,MONTH 12,4,XXX001,Placebo,M,43,NATIVE HAWAIIAN OR OTHER PACIFIC ISLANDER,N,48.400,31.547,-16.853,-0.534,>3% change from baseline,Y,Y,Y,HOLOGIC,1992-12-04,1993-12-04,365,N/A,N/A,N/A,N/A
101-000045,DXA BMD at Lumbar Spine (g/cm^2),BMDLS,MONTH 18,5,XXX001,Placebo,M,43,NATIVE HAWAIIAN OR OTHER PACIFIC ISLANDER,N,13.991,31.547,17.556,0.556,>3% change from baseline,Y,Y,Y,HOLOGIC,1992-12-04,1994-06-05,548,N/A,N/A,N/A,N/A
101-000045,DXA BMD at Lumbar Spine (g/cm^2),BMDLS,MONTH 24,6,XXX001,Placebo,M,43,NATIVE HAWAIIAN OR OTHER PACIFIC ISLANDER,N,42.791,31.547,-11.244,-0.356,>3% change from baseline,Y,Y,Y,HOLOGIC,1992-12-04,1994-12-04,730,N/A,N/A,N/A,N/A
101-000045,DXA BMD at Lumbar Spine (g/cm^2),BMDLS,MONTH 30,7,XXX001,Placebo,M,43,NATIVE HAWAIIAN OR OTHER PACIFIC ISLANDER,N,43.426,31.547,-11.879,-0.377,>3% change from baseline,Y,Y,Y,HOLOGIC,1992-12-04,1995-06-05,913,N/A,N/A,N/A,N/A
101-000045,DXA BMD at Lumbar Spine (g/cm^2),BMDLS,MONTH 36,8,XXX001,Placebo,M,43,NATIVE HAWAIIAN OR OTHER PACIFIC ISLANDER,N,50.387,31.547,-18.840,-0.597,>3% change from baseline,Y,Y,Y,HOLOGIC,1992-12-04,1995-12-04,1095,N/A,N/A,N/A,N/A
101-000046,DXA BMD at Lumbar Spine (g/cm^2),BMDLS,BASELINE,2,XXX001,Drug ABC,F,38,WHITE,Y,49.362,30.206,-19.155,-0.634,>3% change from baseline,Y,Y,Y,LUNAR,1992-11-08,1992-11-08,0,N/A,N/A,N/A,N/A
101-000046,DXA BMD at Lumbar Spine (g/cm^2),BMDLS,MONTH 6,3,XXX001,Drug ABC,F,38,WHITE,Y,44.030,30.206,-13.823,-0.458,>3% change from baseline,Y,Y,Y,LUNAR,1992-11-08,1993-05-10,183,N/A,N/A,N/A,N/A
101-000046,DXA BMD at Lumbar Spine (g/cm^2),BMDLS,MONTH 12,4,XXX001,Drug ABC,F,38,WHITE,Y,50.730,30.206,-20.524,-0.679,>3% change from baseline,Y,Y,Y,LUNAR,1992-11-08,1993-11-08,365,N/A,N/A,N/A,N/A
101-000046,DXA BMD at Lumbar Spine (g/cm^2),BMDLS,MONTH 18,5,XXX001,Drug ABC,F,38,WHITE,Y,20.645,30.206,9.561,0.317,>3% change from baseline,Y,Y,Y,LUNAR,1992-11-08,1994-05-10,548,N/A,N/A,N/A,N/A
101-000046,DXA BMD at Lumbar Spine (g/cm^2),BMDLS,MONTH 24,6,XXX001,Drug ABC,F,38,WHITE,Y,34.220,30.206,-4.014,-0.133,>3% change from baseline,Y,Y,Y,LUNAR,1992-11-08,1994-11-08,730,N/A,N/A,N/A,N/A
101-000046,DXA BMD at Lumbar Spine (g/cm^2),BMDLS,MONTH 30,7,XXX001,Drug ABC,F,38,WHITE,Y,55.328,30.206,-25.121,-0.832,>3% change from baseline,Y,Y,Y,LUNAR,1992-11-08,1995-05-10,913,N/A,N/A,N/A,N/A
101-000046,DXA BMD at Lumbar Spine (g/cm^2),BMDLS,MONTH 36,8,XXX001,Drug ABC,F,38,WHITE,Y,21.880,30.206,8.327,0.276,>3% change from baseline,Y,Y,Y,LUNAR,1992-11-08,1995-11-08,1095,N/A,N/A,N/A,N/A
101-000047,DXA BMD at Lumbar Spine (g/cm^2),BMDLS,BASELINE,2,XXX001,Drug ABC,F,41,WHITE,Y,40.598,56.374,15.776,0.280,>3% change from baseline,Y,Y,Y,HOLOGIC,1992-12-10,1992-12-10,0,N/A,N/A,N/A,N/A
101-000047,DXA BMD at Lumbar Spine (g/cm^2),BMDLS,MONTH 6,3,XXX001,Drug ABC,F,41,WHITE,Y,37.436,56.374,18.938,0.336,>3% change from baseline,Y,Y,Y,HOLOGIC,1992-12-10,1993-06-11,183,N/A,N/A,N/A,N/A
101-000047,DXA BMD at Lumbar Spine (g/cm^2),BMDLS,MONTH 12,4,XXX001,Drug ABC,F,41,WHITE,Y,25.996,56.374,30.378,0.539,>3% change from baseline,Y,Y,Y,HOLOGIC,1992-12-10,1993-12-10,365,N/A,N/A,N/A,N/A
101-000047,DXA BMD at Lumbar Spine (g/cm^2),BMDLS,MONTH 18,5,XXX001,Drug ABC,F,41,WHITE,Y,36.653,56.374,19.720,0.350,>3% change from baseline,Y,Y,Y,HOLOGIC,1992-12-10,1994-06-11,548,N/A,N/A,N/A,N/A
101-000047,DXA BMD at Lumbar Spine (g/cm^2),BMDLS,MONTH 24,6,XXX001,Drug ABC,F,41,WHITE,Y,24.159,56.374,32.215,0.571,>3% change from baseline,Y,Y,Y,HOLOGIC,1992-12-10,1994-12-10,730,N/A,N/A,N/A,N/A
101-000047,DXA BMD at Lumbar Spine (g/cm^2),BMDLS,MONTH 30,7,XXX001,Drug ABC,F,41,WHITE,Y,39.605,56.374,16.768,0.297,>3% change from baseline,Y,Y,Y,HOLOGIC,1992-12-10,1995-06-11,913,N/A,N/A,N/A,N/A
101-000047,DXA BMD at Lumbar Spine (g/cm^2),BMDLS,MONTH 36,8,XXX001,Drug ABC,F,41,WHITE,Y,51.735,56.374,4.639,0.082,>3% change from baseline,Y,Y,Y,HOLOGIC,1992-12-10,1995-12-10,1095,N/A,N/A,N/A,N/A
101-000048,DXA BMD at Lumbar Spine (g/cm^2),BMDLS,BASELINE,2,XXX001,Placebo,M,30,WHITE,N,19.764,28.127,8.363,0.297,>3% change from baseline,Y,Y,Y,LUNAR,1992-11-07,1992-11-07,0,N/A,N/A,N/A,N/A
101-000048,DXA BMD at Lumbar Spine (g/cm^2),BMDLS,MONTH 6,3,XXX001,Placebo,M,30,WHITE,N,16.947,28.127,11.180,0.397,>3% change from baseline,Y,Y,Y,LUNAR,1992-11-07,1993-05-09,183,N/A,N/A,N/A,N/A
101-000048,DXA BMD at Lumbar Spine (g/cm^2),BMDLS,MONTH 12,4,XXX001,Placebo,M,30,WHITE,N,19.283,28.127,8.844,0.314,>3% change from baseline,Y,Y,Y,LUNAR,1992-11-07,1993-11-07,365,N/A,N/A,N/A,N/A
101-000048,DXA BMD at Lumbar Spine (g/cm^2),BMDLS,MONTH 18,5,XXX001,Placebo,M,30,WHITE,N,35.124,28.127,-6.997,-0.249,>3% change from baseline,Y,Y,Y,LUNAR,1992-11-07,1994-05-09,548,N/A,N/A,N/A,N/A
101-000048,DXA BMD at Lumbar Spine (g/cm^2),BMDLS,MONTH 24,6,XXX001,Placebo,M,30,WHITE,N,29.723,28.127,-1.596,-0.057,>3% change from baseline,Y,Y,Y,LUNAR,1992-11-07,1994-11-07,730,N/A,N/A,N/A,N/A
101-000048,DXA BMD at Lumbar Spine (g/cm^2),BMDLS,MONTH 30,7,XXX001,Placebo,M,30,WHITE,N,53.772,28.127,-25.645,-0.912,>3% change from baseline,Y,Y,Y,LUNAR,1992-11-07,1995-05-09,913,N/A,N/A,N/A,N/A
101-000048,DXA BMD at Lumbar Spine (g/cm^2),BMDLS,MONTH 36,8,XXX001,Placebo,M,30,WHITE,N,36.946,28.127,-8.819,-0.314,>3% change from baseline,Y,Y,Y,LUNAR,1992-11-07,1995-11-07,1095,N/A,N/A,N/A,N/A
101-000049,DXA BMD at Lumbar Spine (g/cm^2),BMDLS,BASELINE,2,XXX001,Drug ABC,F,88,BLACK OR AFRICAN AMERICAN,Y,20.081,52.793,32.711,0.620,>3% change from baseline,Y,Y,Y,HOLOGIC,1992-10-21,1992-10-21,0,N/A,N/A,N/A,N/A
101-000049,DXA BMD at Lumbar Spine (g/cm^2),BMDLS,MONTH 6,3,XXX001,Drug ABC,F,88,BLACK OR AFRICAN AMERICAN,Y,23.103,52.793,29.690,0.562,>3% change from baseline,Y,Y,Y,HOLOGIC,1992-10-21,1993-04-22,183,N/A,N/A,N/A,N/A
101-000049,DXA BMD at Lumbar Spine (g/cm^2),BMDLS,MONTH 12,4,XXX001,Drug ABC,F,88,BLACK OR AFRICAN AMERICAN,Y,14.830,52.793,37.962,0.719,>3% change from baseline,Y,Y,Y,HOLOGIC,1992-10-21,1993-10-21,365,N/A,N/A,N/A,N/A
101-000049,DXA BMD at Lumbar Spine (g/cm^2),BMDLS,MONTH 18,5,XXX001,Drug ABC,F,88,BLACK OR AFRICAN AMERICAN,Y,17.002,52.793,35.791,0.678,>3% change from baseline,Y,Y,Y,HOLOGIC,1992-10-21,1994-04-22,548,N/A,N/A,N/A,N/A
101-000049,DXA BMD at Lumbar Spine (g/cm^2),BMDLS,MONTH 24,6,XXX001,Drug ABC,F,88,BLACK OR AFRICAN AMERICAN,Y,41.421,52.793,11.372,0.215,>3% change from baseline,Y,Y,Y,HOLOGIC,1992-10-21,1994-10-21,730,N/A,N/A,N/A,N/A
101-000049,DXA BMD at Lumbar Spine (g/cm^2),BMDLS,MONTH 30,7,XXX001,Drug ABC,F,88,BLACK OR AFRICAN AMERICAN,Y,36.800,52.793,15.992,0.303,>3% change from baseline,Y,Y,Y,HOLOGIC,1992-10-21,1995-04-22,913,N/A,N/A,N/A,N/A
101-000049,DXA BMD at Lumbar Spine (g/cm^2),BMDLS,MONTH 36,8,XXX001,Drug ABC,F,88,BLACK OR AFRICAN AMERICAN,Y,46.092,52.793,6.700,0.127,>3% change from baseline,Y,Y,Y,HOLOGIC,1992-10-21,1995-10-21,1095,N/A,N/A,N/A,N/A
101-000050,DXA BMD at Lumbar Spine (g/cm^2),BMDLS,BASELINE,2,XXX001,Drug ABC,M,22,ASIAN,Y,22.712,41.849,19.137,0.457,>3% change from baseline,Y,Y,Y,LUNAR,1992-12-06,1992-12-06,0,N/A,N/A,N/A,N/A
101-000050,DXA BMD at Lumbar Spine (g/cm^2),BMDLS,MONTH 6,3,XXX001,Drug ABC,M,22,ASIAN,Y,21.055,41.849,20.794,0.497,>3% change from baseline,Y,Y,Y,LUNAR,1992-12-06,1993-06-07,183,N/A,N/A,N/A,N/A
101-000050,DXA BMD at Lumbar Spine (g/cm^2),BMDLS,MONTH 12,4,XXX001,Drug ABC,M,22,ASIAN,Y,42.477,41.849,-0.628,-0.015,,,Y,Y,LUNAR,1992-12-06,1993-12-06,365,N/A,N/A,N/A,N/A
101-000050,DXA BMD at Lumbar Spine (g/cm^2),BMDLS,MONTH 18,5,XXX001,Drug ABC,M,22,ASIAN,Y,43.978,41.849,-2.129,-0.051,>3% change from baseline,Y,Y,Y,LUNAR,1992-12-06,1994-06-07,548,N/A,N/A,N/A,N/A
101-000050,DXA BMD at Lumbar Spine (g/cm^2),BMDLS,MONTH 24,6,XXX001,Drug ABC,M,22,ASIAN,Y,46.511,41.849,-4.662,-0.111,>3% change from baseline,Y,Y,Y,LUNAR,1992-12-06,1994-12-06,730,N/A,N/A,N/A,N/A
101-000050,DXA BMD at Lumbar Spine (g/cm^2),BMDLS,MONTH 30,7,XXX001,Drug ABC,M,22,ASIAN,Y,56.372,41.849,-14.523,-0.347,>3% change from baseline,Y,Y,Y,LUNAR,1992-12-06,1995-06-07,913,N/A,N/A,N/A,N/A
101-000050,DXA BMD at Lumbar Spine (g/cm^2),BMDLS,MONTH 36,8,XXX001,Drug ABC,M,22,ASIAN,Y,50.976,41.849,-9.127,-0.218,>3% change from baseline,Y,Y,Y,LUNAR,1992-12-06,1995-12-06,1095,N/A,N/A,N/A,N/A
101-000051,DXA BMD at Lumbar Spine (g/cm^2),BMDLS,BASELINE,2,XXX001,Placebo,M,47,WHITE,N,43.933,49.128,5.195,0.106,>3% change from baseline,Y,Y,Y,LUNAR,1992-11-14,1992-11-14,0,N/A,N/A,N/A,N/A
101-000051,DXA BMD at Lumbar Spine (g/cm^2),BMDLS,MONTH 6,3,XXX001,Placebo,M,47,WHITE,N,48.615,49.128,0.513,0.010,,,Y,Y,LUNAR,1992-11-14,1993-05-16,183,N/A,N/A,N/A,N/A
101-000051,DXA BMD at Lumbar Spine (g/cm^2),BMDLS,MONTH 12,4,XXX001,Placebo,M,47,WHITE,N,46.056,49.128,3.072,0.063,>3% change from baseline,Y,Y,Y,LUNAR,1992-11-14,1993-11-14,365,N/A,N/A,N/A,N/A
101-000051,DXA BMD at Lumbar Spine (g/cm^2),BMDLS,MONTH 18,5,XXX001,Placebo,M,47,WHITE,N,12.243,49.128,36.885,0.751,>3% change from baseline,Y,Y,Y,LUNAR,1992-11-14,1994-05-16,548,N/A,N/A,N/A,N/A
101-000051,DXA BMD at Lumbar Spine (g/cm^2),BMDLS,MONTH 24,6,XXX001,Placebo,M,47,WHITE,N,28.703,49.128,20.426,0.416,>3% change from baseline,Y,Y,Y,LUNAR,1992-11-14,1994-11-14,730,N/A,N/A,N/A,N/A
101-000051,DXA BMD at Lumbar Spine (g/cm^2),BMDLS,MONTH 30,7,XXX001,Placebo,M,47,WHITE,N,31.577,49.128,17.552,0.357,>3% change from baseline,Y,Y,Y,LUNAR,1992-11-14,1995-05-16,913,N/A,N/A,N/A,N/A
101-000051,DXA BMD at Lumbar Spine (g/cm^2),BMDLS,MONTH 36,8,XXX001,Placebo,M,47,WHITE,N,27.927,49.128,21.201,0.432,>3% change from baseline,Y,Y,Y,LUNAR,1992-11-14,1995-11-14,1095,N/A,N/A,N/A,N/A
101-000052,DXA BMD at Lumbar Spine (g/cm^2),BMDLS,BASELINE,2,XXX001,Placebo,M,80,ASIAN,N,44.014,21.283,-22.731,-1.068,>3% change from baseline,Y,Y,Y,HOLOGIC,1992-11-14,1992-11-14,0,N/A,N/A,N/A,N/A
101-000052,DXA BMD at Lumbar Spine (g/cm^2),BMDLS,MONTH 6,3,XXX001,Placebo,M,80,ASIAN,N,33.477,21.283,-12.194,-0.573,>3% change from baseline,Y,Y,Y,HOLOGIC,1992-11-14,1993-05-16,183,N/A,N/A,N/A,N/A
101-000052,DXA BMD at Lumbar Spine (g/cm^2),BMDLS,MONTH 12,4,XXX001,Placebo,M,80,ASIAN,N,20.265,21.283,1.018,0.048,>3% change from baseline,Y,Y,Y,HOLOGIC,1992-11-14,1993-11-14,365,N/A,N/A,N/A,N/A
101-000052,DXA BMD at Lumbar Spine (g/cm^2),BMDLS,MONTH 18,5,XXX001,Placebo,M,80,ASIAN,N,55.169,21.283,-33.886,-1.592,>3% change from baseline,Y,Y,Y,HOLOGIC,1992-11-14,1994-05-16,548,N/A,N/A,N/A,N/A
101-000052,DXA BMD at Lumbar Spine (g/cm^2),BMDLS,MONTH 24,6,XXX001,Placebo,M,80,ASIAN,N,22.490,21.283,-1.207,-0.057,>3% change from baseline,Y,Y,Y,HOLOGIC,1992-11-14,1994-11-14,730,N/A,N/A,N/A,N/A
101-000052,DXA BMD at Lumbar Spine (g/cm^2),BMDLS,MONTH 30,7,XXX001,Placebo,M,80,ASIAN,N,41.275,21.283,-19.992,-0.939,>3% change from baseline,Y,Y,Y,HOLOGIC,1992-11-14,1995-05-16,913,N/A,N/A,N/A,N/A
101-000052,DXA BMD at Lumbar Spine (g/cm^2),BMDLS,MONTH 36,8,XXX001,Placebo,M,80,ASIAN,N,53.346,21.283,-32.063,-1.506,>3% change from baseline,Y,Y,Y,HOLOGIC,1992-11-14,1995-11-14,1095,N/A,N/A,N/A,N/A
101-000053,DXA BMD at Lumbar Spine (g/cm^2),BMDLS,BASELINE,2,XXX001,Drug ABC,F,53,NATIVE HAWAIIAN OR OTHER PACIFIC ISLANDER,Y,13.832,24.313,10.480,0.431,>3% change from baseline,Y,Y,Y,LUNAR,1992-12-17,1992-12-17,0,N/A,N/A,N/A,N/A
101-000053,DXA BMD at Lumbar Spine (g/cm^2),BMDLS,MONTH 6,3,XXX001,Drug ABC,F,53,NATIVE HAWAIIAN OR OTHER PACIFIC ISLANDER,Y,52.793,24.313,-28.481,-1.171,>3% change from baseline,Y,Y,Y,LUNAR,1992-12-17,1993-06-18,183,N/A,N/A,N/A,N/A
101-000053,DXA BMD at Lumbar Spine (g/cm^2),BMDLS,MONTH 12,4,XXX001,Drug ABC,F,53,NATIVE HAWAIIAN OR OTHER PACIFIC ISLANDER,Y,23.300,24.313,1.013,0.042,>3% change from baseline,Y,Y,Y,LUNAR,1992-12-17,1993-12-17,365,N/A,N/A,N/A,N/A
101-000053,DXA BMD at Lumbar Spine (g/cm^2),BMDLS,MONTH 18,5,XXX001,Drug ABC,F,53,NATIVE HAWAIIAN OR OTHER PACIFIC ISLANDER,Y,41.708,24.313,-17.396,-0.715,>3% change from baseline,Y,Y,Y,LUNAR,1992-12-17,1994-06-18,548,N/A,N/A,N/A,N/A
101-000053,DXA BMD at Lumbar Spine (g/cm^2),BMDLS,MONTH 24,6,XXX001,Drug ABC,F,53,NATIVE HAWAIIAN OR OTHER PACIFIC ISLANDER,Y,53.811,24.313,-29.498,-1.213,>3% change from baseline,Y,Y,Y,LUNAR,1992-12-17,1994-12-17,730,N/A,N/A,N/A,N/A
101-000053,DXA BMD at Lumbar Spine (g/cm^2),BMDLS,MONTH 30,7,XXX001,Drug ABC,F,53,NATIVE HAWAIIAN OR OTHER PACIFIC ISLANDER,Y,49.782,24.313,-25.469,-1.048,>3% change from baseline,Y,Y,Y,LUNAR,1992-12-17,1995-06-18,913,N/A,N/A,N/A,N/A
101-000053,DXA BMD at Lumbar Spine (g/cm^2),BMDLS,MONTH 36,8,XXX001,Drug ABC,F,53,NATIVE HAWAIIAN OR OTHER PACIFIC ISLANDER,Y,27.525,24.313,-3.212,-0.132,>3% change from baseline,Y,Y,Y,LUNAR,1992-12-17,1995-12-17,1095,N/A,N/A,N/A,N/A
101-000054,DXA BMD at Lumbar Spine (g/cm^2),BMDLS,BASELINE,2,XXX001,Drug ABC,M,66,WHITE,Y,29.014,29.322,0.308,0.010,,,Y,Y,HOLOGIC,1992-10-25,1992-10-25,0,N/A,N/A,N/A,N/A
101-000054,DXA BMD at Lumbar Spine (g/cm^2),BMDLS,MONTH 6,3,XXX001,Drug ABC,M,66,WHITE,Y,36.967,29.322,-7.645,-0.261,>3% change from baseline,Y,Y,Y,HOLOGIC,1992-10-25,1993-04-26,183,N/A,N/A,N/A,N/A
101-000054,DXA BMD at Lumbar Spine (g/cm^2),BMDLS,MONTH 12,4,XXX001,Drug ABC,M,66,WHITE,Y,44.413,29.322,-15.092,-0.515,>3% change from baseline,Y,Y,Y,HOLOGIC,1992-10-25,1993-10-25,365,N/A,N/A,N/A,N/A
101-000054,DXA BMD at Lumbar Spine (g/cm^2),BMDLS,MONTH 18,5,XXX001,Drug ABC,M,66,WHITE,Y,11.734,29.322,17.588,0.600,>3% change from baseline,Y,Y,Y,HOLOGIC,1992-10-25,1994-04-26,548,N/A,N/A,N/A,N/A
101-000054,DXA BMD at Lumbar Spine (g/cm^2),BMDLS,MONTH 24,6,XXX001,Drug ABC,M,66,WHITE,Y,21.103,29.322,8.219,0.280,>3% change from baseline,Y,Y,Y,HOLOGIC,1992-10-25,1994-10-25,730,N/A,N/A,N/A,N/A
101-000054,DXA BMD at Lumbar Spine (g/cm^2),BMDLS,MONTH 30,7,XXX001,Drug ABC,M,66,WHITE,Y,20.882,29.322,8.440,0.288,>3% change from baseline,Y,Y,Y,HOLOGIC,1992-10-25,1995-04-26,913,N/A,N/A,N/A,N/A
101-000054,DXA BMD at Lumbar Spine (g/cm^2),BMDLS,MONTH 36,8,XXX001,Drug ABC,M,66,WHITE,Y,20.402,29.322,8.920,0.304,>3% change from baseline,Y,Y,Y,HOLOGIC,1992-10-25,1995-10-25,1095,N/A,N/A,N/A,N/A
101-000055,DXA BMD at Lumbar Spine (g/cm^2),BMDLS,BASELINE,2,XXX001,Drug ABC,M,58,BLACK OR AFRICAN AMERICAN,Y,15.488,47.936,32.448,0.677,>3% change from baseline,Y,Y,Y,HOLOGIC,1992-11-25,1992-11-25,0,N/A,N/A,N/A,N/A
101-000055,DXA BMD at Lumbar Spine (g/cm^2),BMDLS,MONTH 6,3,XXX001,Drug ABC,M,58,BLACK OR AFRICAN AMERICAN,Y,44.278,47.936,3.658,0.076,>3% change from baseline,Y,Y,Y,HOLOGIC,1992-11-25,1993-05-27,183,N/A,N/A,N/A,N/A
101-000055,DXA BMD at Lumbar Spine (g/cm^2),BMDLS,MONTH 12,4,XXX001,Drug ABC,M,58,BLACK OR AFRICAN AMERICAN,Y,15.472,47.936,32.465,0.677,>3% change from baseline,Y,Y,Y,HOLOGIC,1992-11-25,1993-11-25,365,N/A,N/A,N/A,N/A
101-000055,DXA BMD at Lumbar Spine (g/cm^2),BMDLS,MONTH 18,5,XXX001,Drug ABC,M,58,BLACK OR AFRICAN AMERICAN,Y,20.777,47.936,27.160,0.567,>3% change from baseline,Y,Y,Y,HOLOGIC,1992-11-25,1994-05-27,548,N/A,N/A,N/A,N/A
101-000055,DXA BMD at Lumbar Spine (g/cm^2),BMDLS,MONTH 24,6,XXX001,Drug ABC,M,58,BLACK OR AFRICAN AMERICAN,Y,37.953,47.936,9.984,0.208,>3% change from baseline,Y,Y,Y,HOLOGIC,1992-11-25,1994-11-25,730,N/A,N/A,N/A,N/A
101-000055,DXA BMD at Lumbar Spine (g/cm^2),BMDLS,MONTH 30,7,XXX001,Drug ABC,M,58,BLACK OR AFRICAN AMERICAN,Y,28.148,47.936,19.788,0.413,>3% change from baseline,Y,Y,Y,HOLOGIC,1992-11-25,1995-05-27,913,N/A,N/A,N/A,N/A
101-000055,DXA BMD at Lumbar Spine (g/cm^2),BMDLS,MONTH 36,8,XXX001,Drug ABC,M,58,BLACK OR AFRICAN AMERICAN,Y,26.349,47.936,21.587,0.450,>3% change from baseline,Y,Y,Y,HOLOGIC,1992-11-25,1995-11-25,1095,N/A,N/A,N/A,N/A
101-000056,DXA BMD at Lumbar Spine (g/cm^2),BMDLS,BASELINE,2,XXX001,Placebo,F,71,WHITE,N,24.178,13.763,-10.414,-0.757,>3% change from baseline,Y,Y,Y,HOLOGIC,1992-12-18,1992-12-18,0,N/A,N/A,N/A,N/A
101-000056,DXA BMD at Lumbar Spine (g/cm^2),BMDLS,MONTH 6,3,XXX001,Placebo,F,71,WHITE,N,29.579,13.763,-15.816,-1.149,>3% change from baseline,Y,Y,Y,HOLOGIC,1992-12-18,1993-06-19,183,N/A,N/A,N/A,N/A
101-000056,DXA BMD at Lumbar Spine (g/cm^2),BMDLS,MONTH 12,4,XXX001,Placebo,F,71,WHITE,N,50.464,13.763,-36.701,-2.667,>3% change from baseline,Y,Y,Y,HOLOGIC,1992-12-18,1993-12-18,365,N/A,N/A,N/A,N/A
101-000056,DXA BMD at Lumbar Spine (g/cm^2),BMDLS,MONTH 18,5,XXX001,Placebo,F,71,WHITE,N,39.371,13.763,-25.608,-1.861,>3% change from baseline,Y,Y,Y,HOLOGIC,1992-12-18,1994-06-19,548,N/A,N/A,N/A,N/A
101-000056,DXA BMD at Lumbar Spine (g/cm^2),BMDLS,MONTH 24,6,XXX001,Placebo,F,71,WHITE,N,47.938,13.763,-34.175,-2.483,>3% change from baseline,Y,Y,Y,HOLOGIC,1992-12-18,1994-12-18,730,N/A,N/A,N/A,N/A
101-000056,DXA BMD at Lumbar Spine (g/cm^2),BMDLS,MONTH 30,7,XXX001,Placebo,F,71,WHITE,N,14.774,13.763,-1.011,-0.073,>3% change from baseline,Y,Y,Y,HOLOGIC,1992-12-18,1995-06-19,913,N/A,N/A,N/A,N/A
101-000056,DXA BMD at Lumbar Spine (g/cm^2),BMDLS,MONTH 36,8,XXX001,Placebo,F,71,WHITE,N,29.779,13.763,-16.016,-1.164,>3% change from baseline,Y,Y,Y,HOLOGIC,1992-12-18,1995-12-18,1095,N/A,N/A,N/A,N/A
101-000057,DXA BMD at Lumbar Spine (g/cm^2),BMDLS,BASELINE,2,XXX001,Drug ABC,F,60,ASIAN,Y,40.219,42.297,2.078,0.049,>3% change from baseline,Y,Y,Y,HOLOGIC,1992-10-23,1992-10-23,0,N/A,N/A,N/A,N/A
101-000057,DXA BMD at Lumbar Spine (g/cm^2),BMDLS,MONTH 6,3,XXX001,Drug ABC,F,60,ASIAN,Y,25.120,42.297,17.177,0.406,>3% change from baseline,Y,Y,Y,HOLOGIC,1992-10-23,1993-04-24,183,N/A,N/A,N/A,N/A
101-000057,DXA BMD at Lumbar Spine (g/cm^2),BMDLS,MONTH 12,4,XXX001,Drug ABC,F,60,ASIAN,Y,14.105,42.297,28.192,0.667,>3% change from baseline,Y,Y,Y,HOLOGIC,1992-10-23,1993-10-23,365,N/A,N/A,N/A,N/A
101-000057,DXA BMD at Lumbar Spine (g/cm^2),BMDLS,MONTH 18,5,XXX001,Drug ABC,F,60,ASIAN,Y,35.917,42.297,6.380,0.151,>3% change from baseline,Y,Y,Y,HOLOGIC,1992-10-23,1994-04-24,548,N/A,N/A,N/A,N/A
101-000057,DXA BMD at Lumbar Spine (g/cm^2),BMDLS,MONTH 24,6,XXX001,Drug ABC,F,60,ASIAN,Y,12.966,42.297,29.331,0.693,>3% change from baseline,Y,Y,Y,HOLOGIC,1992-10-23,1994-10-23,730,N/A,N/A,N/A,N/A
101-000057,DXA BMD at Lumbar Spine (g/cm^2),BMDLS,MONTH 30,7,XXX001,Drug ABC,F,60,ASIAN,Y,26.993,42.297,15.304,0.362,>3% change from baseline,Y,Y,Y,HOLOGIC,1992-10-23,1995-04-24,913,N/A,N/A,N/A,N/A
101-000057,DXA BMD at Lumbar Spine (g/cm^2),BMDLS,MONTH 36,8,XXX001,Drug ABC,F,60,ASIAN,Y,26.541,42.297,15.755,0.372,>3% change from baseline,Y,Y,Y,HOLOGIC,1992-10-23,1995-10-23,1095,N/A,N/A,N/A,N/A
101-000058,DXA BMD at Lumbar Spine (g/cm^2),BMDLS,BASELINE,2,XXX001,Drug ABC,F,39,WHITE,Y,27.610,42.999,15.389,0.358,>3% change from baseline,Y,Y,Y,LUNAR,1992-10-26,1992-10-26,0,N/A,N/A,N/A,N/A
101-000058,DXA BMD at Lumbar Spine (g/cm^2),BMDLS,MONTH 6,3,XXX001,Drug ABC,F,39,WHITE,Y,25.008,42.999,17.991,0.418,>3% change from baseline,Y,Y,Y,LUNAR,1992-10-26,1993-04-27,183,N/A,N/A,N/A,N/A
101-000058,DXA BMD at Lumbar Spine (g/cm^2),BMDLS,MONTH 12,4,XXX001,Drug ABC,F,39,WHITE,Y,21.325,42.999,21.675,0.504,>3% change from baseline,Y,Y,Y,LUNAR,1992-10-26,1993-10-26,365,N/A,N/A,N/A,N/A
101-000058,DXA BMD at Lumbar Spine (g/cm^2),BMDLS,MONTH 18,5,XXX001,Drug ABC,F,39,WHITE,Y,12.196,42.999,30.803,0.716,>3% change from baseline,Y,Y,Y,LUNAR,1992-10-26,1994-04-27,548,N/A,N/A,N/A,N/A
101-000058,DXA BMD at Lumbar Spine (g/cm^2),BMDLS,MONTH 24,6,XXX001,Drug ABC,F,39,WHITE,Y,19.403,42.999,23.596,0.549,>3% change from baseline,Y,Y,Y,LUNAR,1992-10-26,1994-10-26,730,N/A,N/A,N/A,N/A
101-000058,DXA BMD at Lumbar Spine (g/cm^2),BMDLS,MONTH 30,7,XXX001,Drug ABC,F,39,WHITE,Y,29.287,42.999,13.712,0.319,>3% change from baseline,Y,Y,Y,LUNAR,1992-10-26,1995-04-27,913,N/A,N/A,N/A,N/A
101-000058,DXA BMD at Lumbar Spine (g/cm^2),BMDLS,MONTH 36,8,XXX001,Drug ABC,F,39,WHITE,Y,31.880,42.999,11.119,0.259,>3% change from baseline,Y,Y,Y,LUNAR,1992-10-26,1995-10-26,1095,N/A,N/A,N/A,N/A
101-000059,DXA BMD at Lumbar Spine (g/cm^2),BMDLS,BASELINE,2,XXX001,Placebo,F,47,BLACK OR AFRICAN AMERICAN,N,28.930,34.944,6.015,0.172,>3% change from baseline,Y,Y,Y,HOLOGIC,1992-12-02,1992-12-02,0,N/A,N/A,N/A,N/A
101-000059,DXA BMD at Lumbar Spine (g/cm^2),BMDLS,MONTH 6,3,XXX001,Placebo,F,47,BLACK OR AFRICAN AMERICAN,N,55.476,34.944,-20.531,-0.588,>3% change from baseline,Y,Y,Y,HOLOGIC,1992-12-02,1993-06-03,183,N/A,N/A,N/A,N/A
101-000059,DXA BMD at Lumbar Spine (g/cm^2),BMDLS,MONTH 12,4,XXX001,Placebo,F,47,BLACK OR AFRICAN AMERICAN,N,43.339,34.944,-8.395,-0.240,>3% change from baseline,Y,Y,Y,HOLOGIC,1992-12-02,1993-12-02,365,N/A,N/A,N/A,N/A
101-000059,DXA BMD at Lumbar Spine (g/cm^2),BMDLS,MONTH 18,5,XXX001,Placebo,F,47,BLACK OR AFRICAN AMERICAN,N,56.215,34.944,-21.270,-0.609,>3% change from baseline,Y,Y,Y,HOLOGIC,1992-12-02,1994-06-03,548,N/A,N/A,N/A,N/A
101-000059,DXA BMD at Lumbar Spine (g/cm^2),BMDLS,MONTH 24,6,XXX001,Placebo,F,47,BLACK OR AFRICAN AMERICAN,N,42.140,34.944,-7.196,-0.206,>3% change from baseline,Y,Y,Y,HOLOGIC,1992-12-02,1994-12-02,730,N/A,N/A,N/A,N/A
101-000059,DXA BMD at Lumbar Spine (g/cm^2),BMDLS,MONTH 30,7,XXX001,Placebo,F,47,BLACK OR AFRICAN AMERICAN,N,25.694,34.944,9.250,0.265,>3% change from baseline,Y,Y,Y,HOLOGIC,1992-12-02,1995-06-03,913,N/A,N/A,N/A,N/A
101-000059,DXA BMD at Lumbar Spine (g/cm^2),BMDLS,MONTH 36,8,XXX001,Placebo,F,47,BLACK OR AFRICAN AMERICAN,N,40.066,34.944,-5.122,-0.147,>3% change from baseline,Y,Y,Y,HOLOGIC,1992-12-02,1995-12-02,1095,N/A,N/A,N/A,N/A
101-000060,DXA BMD at Lumbar Spine (g/cm^2),BMDLS,BASELINE,2,XXX001,Placebo,F,45,WHITE,N,27.645,47.268,19.623,0.415,>3% change from baseline,Y,Y,Y,HOLOGIC,1992-11-14,1992-11-14,0,N/A,N/A,N/A,N/A
101-000060,DXA BMD at Lumbar Spine (g/cm^2),BMDLS,MONTH 6,3,XXX001,Placebo,F,45,WHITE,N,27.873,47.268,19.395,0.410,>3% change from baseline,Y,Y,Y,HOLOGIC,1992-11-14,1993-05-16,183,N/A,N/A,N/A,N/A
101-000060,DXA BMD at Lumbar Spine (g/cm^2),BMDLS,MONTH 12,4,XXX001,Placebo,F,45,WHITE,N,15.784,47.268,31.484,0.666,>3% change from baseline,Y,Y,Y,HOLOGIC,1992-11-14,1993-11-14,365,N/A,N/A,N/A,N/A
101-000060,DXA BMD at Lumbar Spine (g/cm^2),BMDLS,MONTH 18,5,XXX001,Placebo,F,45,WHITE,N,56.037,47.268,-8.769,-0.186,>3% change from baseline,Y,Y,Y,HOLOGIC,1992-11-14,1994-05-16,548,N/A,N/A,N/A,N/A
101-000060,DXA BMD at Lumbar Spine (g/cm^2),BMDLS,MONTH 24,6,XXX001,Placebo,F,45,WHITE,N,22.896,47.268,24.372,0.516,>3% change from baseline,Y,Y,Y,HOLOGIC,1992-11-14,1994-11-14,730,N/A,N/A,N/A,N/A
101-000060,DXA BMD at Lumbar Spine (g/cm^2),BMDLS,MONTH 30,7,XXX001,Placebo,F,45,WHITE,N,19.838,47.268,27.430,0.580,>3% change from baseline,Y,Y,Y,HOLOGIC,1992-11-14,1995-05-16,913,N/A,N/A,N/A,N/A
101-000060,DXA BMD at Lumbar Spine (g/cm^2),BMDLS,MONTH 36,8,XXX001,Placebo,F,45,WHITE,N,15.969,47.268,31.300,0.662,>3% change from baseline,Y,Y,Y,HOLOGIC,1992-11-14,1995-11-14,1095,N/A,N/A,N/A,N/A
101-000061,DXA BMD at Lumbar Spine (g/cm^2),BMDLS,BASELINE,2,XXX001,Drug ABC,F,29,WHITE,Y,16.426,30.990,14.564,0.470,>3% change from baseline,Y,Y,Y,LUNAR,1992-10-27,1992-10-27,0,N/A,N/A,N/A,N/A
101-000061,DXA BMD at Lumbar Spine (g/cm^2),BMDLS,MONTH 6,3,XXX001,Drug ABC,F,29,WHITE,Y,45.465,30.990,-14.475,-0.467,>3% change from baseline,Y,Y,Y,LUNAR,1992-10-27,1993-04-28,183,N/A,N/A,N/A,N/A
101-000061,DXA BMD at Lumbar Spine (g/cm^2),BMDLS,MONTH 12,4,XXX001,Drug ABC,F,29,WHITE,Y,17.211,30.990,13.779,0.445,>3% change from baseline,Y,Y,Y,LUNAR,1992-10-27,1993-10-27,365,N/A,N/A,N/A,N/A
101-000061,DXA BMD at Lumbar Spine (g/cm^2),BMDLS,MONTH 18,5,XXX001,Drug ABC,F,29,WHITE,Y,49.864,30.990,-18.874,-0.609,>3% change from baseline,Y,Y,Y,LUNAR,1992-10-27,1994-04-28,548,N/A,N/A,N/A,N/A
101-000061,DXA BMD at Lumbar Spine (g/cm^2),BMDLS,MONTH 24,6,XXX001,Drug ABC,F,29,WHITE,Y,44.179,30.990,-13.189,-0.426,>3% change from baseline,Y,Y,Y,LUNAR,1992-10-27,1994-10-27,730,N/A,N/A,N/A,N/A
101-000061,DXA BMD at Lumbar Spine (g/cm^2),BMDLS,MONTH 30,7,XXX001,Drug ABC,F,29,WHITE,Y,11.547,30.990,19.442,0.627,>3% change from baseline,Y,Y,Y,LUNAR,1992-10-27,1995-04-28,913,N/A,N/A,N/A,N/A
101-000061,DXA BMD at Lumbar Spine (g/cm^2),BMDLS,MONTH 36,8,XXX001,Drug ABC,F,29,WHITE,Y,43.251,30.990,-12.261,-0.396,>3% change from baseline,Y,Y,Y,LUNAR,1992-10-27,1995-10-27,1095,N/A,N/A,N/A,N/A
101-000062,DXA BMD at Lumbar Spine (g/cm^2),BMDLS,BASELINE,2,XXX001,Placebo,F,53,WHITE,N,20.647,36.319,15.672,0.432,>3% change from baseline,Y,Y,Y,LUNAR,1992-11-23,1992-11-23,0,N/A,N/A,N/A,N/A
101-000062,DXA BMD at Lumbar Spine (g/cm^2),BMDLS,MONTH 6,3,XXX001,Placebo,F,53,WHITE,N,29.935,36.319,6.384,0.176,>3% change from baseline,Y,Y,Y,LUNAR,1992-11-23,1993-05-25,183,N/A,N/A,N/A,N/A
101-000062,DXA BMD at Lumbar Spine (g/cm^2),BMDLS,MONTH 12,4,XXX001,Placebo,F,53,WHITE,N,36.100,36.319,0.219,0.006,,,Y,Y,LUNAR,1992-11-23,1993-11-23,365,N/A,N/A,N/A,N/A
101-000062,DXA BMD at Lumbar Spine (g/cm^2),BMDLS,MONTH 18,5,XXX001,Placebo,F,53,WHITE,N,54.059,36.319,-17.741,-0.488,>3% change from baseline,Y,Y,Y,LUNAR,1992-11-23,1994-05-25,548,N/A,N/A,N/A,N/A
101-000062,DXA BMD at Lumbar Spine (g/cm^2),BMDLS,MONTH 24,6,XXX001,Placebo,F,53,WHITE,N,17.408,36.319,18.910,0.521,>3% change from baseline,Y,Y,Y,LUNAR,1992-11-23,1994-11-23,730,N/A,N/A,N/A,N/A
101-000062,DXA BMD at Lumbar Spine (g/cm^2),BMDLS,MONTH 30,7,XXX001,Placebo,F,53,WHITE,N,21.978,36.319,14.340,0.395,>3% change from baseline,Y,Y,Y,LUNAR,1992-11-23,1995-05-25,913,N/A,N/A,N/A,N/A
101-000062,DXA BMD at Lumbar Spine (g/cm^2),BMDLS,MONTH 36,8,XXX001,Placebo,F,53,WHITE,N,46.082,36.319,-9.764,-0.269,>3% change from baseline,Y,Y,Y,LUNAR,1992-11-23,1995-11-23,1095,N/A,N/A,N/A,N/A
101-000063,DXA BMD at Lumbar Spine (g/cm^2),BMDLS,BASELINE,2,XXX001,Placebo,M,88,WHITE,N,18.922,38.455,19.533,0.508,>3% change from baseline,Y,Y,Y,HOLOGIC,1992-12-04,1992-12-04,0,N/A,N/A,N/A,N/A
101-000063,DXA BMD at Lumbar Spine (g/cm^2),BMDLS,MONTH 6,3,XXX001,Placebo,M,88,WHITE,N,34.857,38.455,3.598,0.094,>3% change from baseline,Y,Y,Y,HOLOGIC,1992-12-04,1993-06-05,183,N/A,N/A,N/A,N/A
101-000063,DXA BMD at Lumbar Spine (g/cm^2),BMDLS,MONTH 12,4,XXX001,Placebo,M,88,WHITE,N,32.172,38.455,6.283,0.163,>3% change from baseline,Y,Y,Y,HOLOGIC,1992-12-04,1993-12-04,365,N/A,N/A,N/A,N/A
101-000063,DXA BMD at Lumbar Spine (g/cm^2),BMDLS,MONTH 18,5,XXX001,Placebo,M,88,WHITE,N,50.795,38.455,-12.340,-0.321,>3% change from baseline,Y,Y,Y,HOLOGIC,1992-12-04,1994-06-05,548,N/A,N/A,N/A,N/A
101-000063,DXA BMD at Lumbar Spine (g/cm^2),BMDLS,MONTH 24,6,XXX001,Placebo,M,88,WHITE,N,27.092,38.455,11.362,0.295,>3% change from baseline,Y,Y,Y,HOLOGIC,1992-12-04,1994-12-04,730,N/A,N/A,N/A,N/A
101-000063,DXA BMD at Lumbar Spine (g/cm^2),BMDLS,MONTH 30,7,XXX001,Placebo,M,88,WHITE,N,48.829,38.455,-10.374,-0.270,>3% change from baseline,Y,Y,Y,HOLOGIC,1992-12-04,1995-06-05,913,N/A,N/A,N/A,N/A
101-000063,DXA BMD at Lumbar Spine (g/cm^2),BMDLS,MONTH 36,8,XXX001,Placebo,M,88,WHITE,N,53.724,38.455,-15.269,-0.397,>3% change from baseline,Y,Y,Y,HOLOGIC,1992-12-04,1995-12-04,1095,N/A,N/A,N/A,N/A
101-000064,DXA BMD at Lumbar Spine (g/cm^2),BMDLS,BASELINE,2,XXX001,Drug ABC,M,48,WHITE,Y,28.429,29.554,1.125,0.038,>3% change from baseline,Y,Y,Y,LUNAR,1992-12-17,1992-12-17,0,N/A,N/A,N/A,N/A
101-000064,DXA BMD at Lumbar Spine (g/cm^2),BMDLS,MONTH 6,3,XXX001,Drug ABC,M,48,WHITE,Y,28.567,29.554,0.987,0.033,>3% change from baseline,Y,Y,Y,LUNAR,1992-12-17,1993-06-18,183,N/A,N/A,N/A,N/A
101-000064,DXA BMD at Lumbar Spine (g/cm^2),BMDLS,MONTH 12,4,XXX001,Drug ABC,M,48,WHITE,Y,23.400,29.554,6.154,0.208,>3% change from baseline,Y,Y,Y,LUNAR,1992-12-17,1993-12-17,365,N/A,N/A,N/A,N/A
101-000064,DXA BMD at Lumbar Spine (g/cm^2),BMDLS,MONTH 18,5,XXX001,Drug ABC,M,48,WHITE,Y,43.286,29.554,-13.732,-0.465,>3% change from baseline,Y,Y,Y,LUNAR,1992-12-17,1994-06-18,548,N/A,N/A,N/A,N/A
101-000064,DXA BMD at Lumbar Spine (g/cm^2),BMDLS,MONTH 24,6,XXX001,Drug ABC,M,48,WHITE,Y,27.676,29.554,1.878,0.064,>3% change from baseline,Y,Y,Y,LUNAR,1992-12-17,1994-12-17,730,N/A,N/A,N/A,N/A
101-000064,DXA BMD at Lumbar Spine (g/cm^2),BMDLS,MONTH 30,7,XXX001,Drug ABC,M,48,WHITE,Y,30.557,29.554,-1.003,-0.034,>3% change from baseline,Y,Y,Y,LUNAR,1992-12-17,1995-06-18,913,N/A,N/A,N/A,N/A
101-000064,DXA BMD at Lumbar Spine (g/cm^2),BMDLS,MONTH 36,8,XXX001,Drug ABC,M,48,WHITE,Y,34.673,29.554,-5.119,-0.173,>3% change from baseline,Y,Y,Y,LUNAR,1992-12-17,1995-12-17,1095,N/A,N/A,N/A,N/A
101-000065,DXA BMD at Lumbar Spine (g/cm^2),BMDLS,BASELINE,2,XXX001,Placebo,M,82,BLACK OR AFRICAN AMERICAN,N,40.396,18.129,-22.267,-1.228,>3% change from baseline,Y,Y,Y,HOLOGIC,1992-11-29,1992-11-29,0,N/A,N/A,N/A,N/A
101-000065,DXA BMD at Lumbar Spine (g/cm^2),BMDLS,MONTH 6,3,XXX001,Placebo,M,82,BLACK OR AFRICAN AMERICAN,N,31.599,18.129,-13.470,-0.743,>3% change from baseline,Y,Y,Y,HOLOGIC,1992-11-29,1993-05-31,183,N/A,N/A,N/A,N/A
101-000065,DXA BMD at Lumbar Spine (g/cm^2),BMDLS,MONTH 12,4,XXX001,Placebo,M,82,BLACK OR AFRICAN AMERICAN,N,52.266,18.129,-34.137,-1.883,>3% change from baseline,Y,Y,Y,HOLOGIC,1992-11-29,1993-11-29,365,N/A,N/A,N/A,N/A
101-000065,DXA BMD at Lumbar Spine (g/cm^2),BMDLS,MONTH 18,5,XXX001,Placebo,M,82,BLACK OR AFRICAN AMERICAN,N,30.914,18.129,-12.785,-0.705,>3% change from baseline,Y,Y,Y,HOLOGIC,1992-11-29,1994-05-31,548,N/A,N/A,N/A,N/A
101-000065,DXA BMD at Lumbar Spine (g/cm^2),BMDLS,MONTH 24,6,XXX001,Placebo,M,82,BLACK OR AFRICAN AMERICAN,N,46.869,18.129,-28.739,-1.585,>3% change from baseline,Y,Y,Y,HOLOGIC,1992-11-29,1994-11-29,730,N/A,N/A,N/A,N/A
101-000065,DXA BMD at Lumbar Spine (g/cm^2),BMDLS,MONTH 30,7,XXX001,Placebo,M,82,BLACK OR AFRICAN AMERICAN,N,55.493,18.129,-37.363,-2.061,>3% change from baseline,Y,Y,Y,HOLOGIC,1992-11-29,1995-05-31,913,N/A,N/A,N/A,N/A
101-000065,DXA BMD at Lumbar Spine (g/cm^2),BMDLS,MONTH 36,8,XXX001,Placebo,M,82,BLACK OR AFRICAN AMERICAN,N,53.728,18.129,-35.598,-1.964,>3% change from baseline,Y,Y,Y,HOLOGIC,1992-11-29,1995-11-29,1095,N/A,N/A,N/A,N/A
101-000066,DXA BMD at Lumbar Spine (g/cm^2),BMDLS,BASELINE,2,XXX001,Placebo,M,64,WHITE,N,27.623,16.192,-11.431,-0.706,>3% change from baseline,Y,Y,Y,HOLOGIC,1992-11-26,1992-11-26,0,N/A,N/A,N/A,N/A
101-000066,DXA BMD at Lumbar Spine (g/cm^2),BMDLS,MONTH 6,3,XXX001,Placebo,M,64,WHITE,N,40.869,16.192,-24.677,-1.524,>3% change from baseline,Y,Y,Y,HOLOGIC,1992-11-26,1993-05-28,183,N/A,N/A,N/A,N/A
101-000066,DXA BMD at Lumbar Spine (g/cm^2),BMDLS,MONTH 12,4,XXX001,Placebo,M,64,WHITE,N,43.752,16.192,-27.560,-1.702,>3% change from baseline,Y,Y,Y,HOLOGIC,1992-11-26,1993-11-26,365,N/A,N/A,N/A,N/A
101-000066,DXA BMD at Lumbar Spine (g/cm^2),BMDLS,MONTH 18,5,XXX001,Placebo,M,64,WHITE,N,47.775,16.192,-31.583,-1.951,>3% change from baseline,Y,Y,Y,HOLOGIC,1992-11-26,1994-05-28,548,N/A,N/A,N/A,N/A
101-000066,DXA BMD at Lumbar Spine (g/cm^2),BMDLS,MONTH 24,6,XXX001,Placebo,M,64,WHITE,N,44.730,16.192,-28.539,-1.763,>3% change from baseline,Y,Y,Y,HOLOGIC,1992-11-26,1994-11-26,730,N/A,N/A,N/A,N/A
101-000066,DXA BMD at Lumbar Spine (g/cm^2),BMDLS,MONTH 30,7,XXX001,Placebo,M,64,WHITE,N,22.302,16.192,-6.110,-0.377,>3% change from baseline,Y,Y,Y,HOLOGIC,1992-11-26,1995-05-28,913,N/A,N/A,N/A,N/A
101-000066,DXA BMD at Lumbar Spine (g/cm^2),BMDLS,MONTH 36,8,XXX001,Placebo,M,64,WHITE,N,49.101,16.192,-32.909,-2.032,>3% change from baseline,Y,Y,Y,HOLOGIC,1992-11-26,1995-11-26,1095,N/A,N/A,N/A,N/A
101-000067,DXA BMD at Lumbar Spine (g/cm^2),BMDLS,BASELINE,2,XXX001,Drug ABC,F,69,WHITE,Y,49.170,37.364,-11.806,-0.316,>3% change from baseline,Y,Y,Y,HOLOGIC,1992-11-14,1992-11-14,0,N/A,N/A,N/A,N/A
101-000067,DXA BMD at Lumbar Spine (g/cm^2),BMDLS,MONTH 6,3,XXX001,Drug ABC,F,69,WHITE,Y,20.804,37.364,16.559,0.443,>3% change from baseline,Y,Y,Y,HOLOGIC,1992-11-14,1993-05-16,183,N/A,N/A,N/A,N/A
101-000067,DXA BMD at Lumbar Spine (g/cm^2),BMDLS,MONTH 12,4,XXX001,Drug ABC,F,69,WHITE,Y,47.700,37.364,-10.337,-0.277,>3% change from baseline,Y,Y,Y,HOLOGIC,1992-11-14,1993-11-14,365,N/A,N/A,N/A,N/A
101-000067,DXA BMD at Lumbar Spine (g/cm^2),BMDLS,MONTH 18,5,XXX001,Drug ABC,F,69,WHITE,Y,33.049,37.364,4.315,0.115,>3% change from baseline,Y,Y,Y,HOLOGIC,1992-11-14,1994-05-16,548,N/A,N/A,N/A,N/A
101-000067,DXA BMD at Lumbar Spine (g/cm^2),BMDLS,MONTH 24,6,XXX001,Drug ABC,F,69,WHITE,Y,22.736,37.364,14.628,0.391,>3% change from baseline,Y,Y,Y,HOLOGIC,1992-11-14,1994-11-14,730,N/A,N/A,N/A,N/A
101-000067,DXA BMD at Lumbar Spine (g/cm^2),BMDLS,MONTH 30,7,XXX001,Drug ABC,F,69,WHITE,Y,50.736,37.364,-13.373,-0.358,>3% change from baseline,Y,Y,Y,HOLOGIC,1992-11-14,1995-05-16,913,N/A,N/A,N/A,N/A
101-000067,DXA BMD at Lumbar Spine (g/cm^2),BMDLS,MONTH 36,8,XXX001,Drug ABC,F,69,WHITE,Y,48.776,37.364,-11.412,-0.305,>3% change from baseline,Y,Y,Y,HOLOGIC,1992-11-14,1995-11-14,1095,N/A,N/A,N/A,N/A
101-000068,DXA BMD at Lumbar Spine (g/cm^2),BMDLS,BASELINE,2,XXX001,Placebo,F,84,WHITE,N,34.168,12.120,-22.047,-1.819,>3% change from baseline,Y,Y,Y,LUNAR,1992-11-19,1992-11-19,0,N/A,N/A,N/A,N/A
101-000068,DXA BMD at Lumbar Spine (g/cm^2),BMDLS,MONTH 6,3,XXX001,Placebo,F,84,WHITE,N,43.883,12.120,-31.763,-2.621,>3% change from baseline,Y,Y,Y,LUNAR,1992-11-19,1993-05-21,183,N/A,N/A,N/A,N/A
101-000068,DXA BMD at Lumbar Spine (g/cm^2),BMDLS,MONTH 12,4,XXX001,Placebo,F,84,WHITE,N,20.916,12.120,-8.796,-0.726,>3% change from baseline,Y,Y,Y,LUNAR,1992-11-19,1993-11-19,365,N/A,N/A,N/A,N/A
101-000068,DXA BMD at Lumbar Spine (g/cm^2),BMDLS,MONTH 18,5,XXX001,Placebo,F,84,WHITE,N,27.949,12.120,-15.829,-1.306,>3% change from baseline,Y,Y,Y,LUNAR,1992-11-19,1994-05-21,548,N/A,N/A,N/A,N/A
101-000068,DXA BMD at Lumbar Spine (g/cm^2),BMDLS,MONTH 24,6,XXX001,Placebo,F,84,WHITE,N,44.836,12.120,-32.716,-2.699,>3% change from baseline,Y,Y,Y,LUNAR,1992-11-19,1994-11-19,730,N/A,N/A,N/A,N/A
101-000068,DXA BMD at Lumbar Spine (g/cm^2),BMDLS,MONTH 30,7,XXX001,Placebo,F,84,WHITE,N,22.142,12.120,-10.022,-0.827,>3% change from baseline,Y,Y,Y,LUNAR,1992-11-19,1995-05-21,913,N/A,N/A,N/A,N/A
101-000068,DXA BMD at Lumbar Spine (g/cm^2),BMDLS,MONTH 36,8,XXX001,Placebo,F,84,WHITE,N,51.667,12.120,-39.546,-3.263,>3% change from baseline,Y,Y,Y,LUNAR,1992-11-19,1995-11-19,1095,N/A,N/A,N/A,N/A
101-000069,DXA BMD at Lumbar Spine (g/cm^2),BMDLS,BASELINE,2,XXX001,Drug ABC,F,23,WHITE,Y,36.978,14.307,-22.671,-1.585,>3% change from baseline,Y,Y,Y,HOLOGIC,1992-11-14,1992-11-14,0,N/A,N/A,N/A,N/A
101-000069,DXA BMD at Lumbar Spine (g/cm^2),BMDLS,MONTH 6,3,XXX001,Drug ABC,F,23,WHITE,Y,22.601,14.307,-8.294,-0.580,>3% change from baseline,Y,Y,Y,HOLOGIC,1992-11-14,1993-05-16,183,N/A,N/A,N/A,N/A
101-000069,DXA BMD at Lumbar Spine (g/cm^2),BMDLS,MONTH 12,4,XXX001,Drug ABC,F,23,WHITE,Y,24.095,14.307,-9.789,-0.684,>3% change from baseline,Y,Y,Y,HOLOGIC,1992-11-14,1993-11-14,365,N/A,N/A,N/A,N/A
101-000069,DXA BMD at Lumbar Spine (g/cm^2),BMDLS,MONTH 18,5,XXX001,Drug ABC,F,23,WHITE,Y,46.688,14.307,-32.381,-2.263,>3% change from baseline,Y,Y,Y,HOLOGIC,1992-11-14,1994-05-16,548,N/A,N/A,N/A,N/A
101-000069,DXA BMD at Lumbar Spine (g/cm^2),BMDLS,MONTH 24,6,XXX001,Drug ABC,F,23,WHITE,Y,13.323,14.307,0.984,0.069,>3% change from baseline,Y,Y,Y,HOLOGIC,1992-11-14,1994-11-14,730,N/A,N/A,N/A,N/A
101-000069,DXA BMD at Lumbar Spine (g/cm^2),BMDLS,MONTH 30,7,XXX001,Drug ABC,F,23,WHITE,Y,36.916,14.307,-22.610,-1.580,>3% change from baseline,Y,Y,Y,HOLOGIC,1992-11-14,1995-05-16,913,N/A,N/A,N/A,N/A
101-000069,DXA BMD at Lumbar Spine (g/cm^2),BMDLS,MONTH 36,8,XXX001,Drug ABC,F,23,WHITE,Y,44.189,14.307,-29.882,-2.089,>3% change from baseline,Y,Y,Y,HOLOGIC,1992-11-14,1995-11-14,1095,N/A,N/A,N/A,N/A
101-000070,DXA BMD at Lumbar Spine (g/cm^2),BMDLS,BASELINE,2,XXX001,Drug ABC,M,77,BLACK OR AFRICAN AMERICAN,Y,45.389,52.747,7.358,0.139,>3% change from baseline,Y,Y,Y,HOLOGIC,1992-11-30,1992-11-30,0,N/A,N/A,N/A,N/A
101-000070,DXA BMD at Lumbar Spine (g/cm^2),BMDLS,MONTH 6,3,XXX001,Drug ABC,M,77,BLACK OR AFRICAN AMERICAN,Y,49.792,52.747,2.955,0.056,>3% change from baseline,Y,Y,Y,HOLOGIC,1992-11-30,1993-06-01,183,N/A,N/A,N/A,N/A
101-000070,DXA BMD at Lumbar Spine (g/cm^2),BMDLS,MONTH 12,4,XXX001,Drug ABC,M,77,BLACK OR AFRICAN AMERICAN,Y,46.107,52.747,6.640,0.126,>3% change from baseline,Y,Y,Y,HOLOGIC,1992-11-30,1993-11-30,365,N/A,N/A,N/A,N/A
101-000070,DXA BMD at Lumbar Spine (g/cm^2),BMDLS,MONTH 18,5,XXX001,Drug ABC,M,77,BLACK OR AFRICAN AMERICAN,Y,45.039,52.747,7.708,0.146,>3% change from baseline,Y,Y,Y,HOLOGIC,1992-11-30,1994-06-01,548,N/A,N/A,N/A,N/A
101-000070,DXA BMD at Lumbar Spine (g/cm^2),BMDLS,MONTH 24,6,XXX001,Drug ABC,M,77,BLACK OR AFRICAN AMERICAN,Y,20.770,52.747,31.977,0.606,>3% change from baseline,Y,Y,Y,HOLOGIC,1992-11-30,1994-11-30,730,N/A,N/A,N/A,N/A
101-000070,DXA BMD at Lumbar Spine (g/cm^2),BMDLS,MONTH 30,7,XXX001,Drug ABC,M,77,BLACK OR AFRICAN AMERICAN,Y,12.059,52.747,40.688,0.771,>3% change from baseline,Y,Y,Y,HOLOGIC,1992-11-30,1995-06-01,913,N/A,N/A,N/A,N/A
101-000070,DXA BMD at Lumbar Spine (g/cm^2),BMDLS,MONTH 36,8,XXX001,Drug ABC,M,77,BLACK OR AFRICAN AMERICAN,Y,29.137,52.747,23.610,0.448,>3% change from baseline,Y,Y,Y,HOLOGIC,1992-11-30,1995-11-30,1095,N/A,N/A,N/A,N/A
101-000071,DXA BMD at Lumbar Spine (g/cm^2),BMDLS,BASELINE,2,XXX001,Drug ABC,F,23,WHITE,Y,14.761,30.451,15.690,0.515,>3% change from baseline,Y,Y,Y,LUNAR,1992-11-15,1992-11-15,0,N/A,N/A,N/A,N/A
101-000071,DXA BMD at Lumbar Spine (g/cm^2),BMDLS,MONTH 6,3,XXX001,Drug ABC,F,23,WHITE,Y,45.729,30.451,-15.278,-0.502,>3% change from baseline,Y,Y,Y,LUNAR,1992-11-15,1993-05-17,183,N/A,N/A,N/A,N/A
101-000071,DXA BMD at Lumbar Spine (g/cm^2),BMDLS,MONTH 12,4,XXX001,Drug ABC,F,23,WHITE,Y,11.321,30.451,19.130,0.628,>3% change from baseline,Y,Y,Y,LUNAR,1992-11-15,1993-11-15,365,N/A,N/A,N/A,N/A
101-000071,DXA BMD at Lumbar Spine (g/cm^2),BMDLS,MONTH 18,5,XXX001,Drug ABC,F,23,WHITE,Y,13.823,30.451,16.628,0.546,>3% change from baseline,Y,Y,Y,LUNAR,1992-11-15,1994-05-17,548,N/A,N/A,N/A,N/A
101-000071,DXA BMD at Lumbar Spine (g/cm^2),BMDLS,MONTH 24,6,XXX001,Drug ABC,F,23,WHITE,Y,23.202,30.451,7.249,0.238,>3% change from baseline,Y,Y,Y,LUNAR,1992-11-15,1994-11-15,730,N/A,N/A,N/A,N/A
101-000071,DXA BMD at Lumbar Spine (g/cm^2),BMDLS,MONTH 30,7,XXX001,Drug ABC,F,23,WHITE,Y,21.972,30.451,8.479,0.278,>3% change from baseline,Y,Y,Y,LUNAR,1992-11-15,1995-05-17,913,N/A,N/A,N/A,N/A
101-000071,DXA BMD at Lumbar Spine (g/cm^2),BMDLS,MONTH 36,8,XXX001,Drug ABC,F,23,WHITE,Y,45.069,30.451,-14.618,-0.480,>3% change from baseline,Y,Y,Y,LUNAR,1992-11-15,1995-11-15,1095,N/A,N/A,N/A,N/A
101-000072,DXA BMD at Lumbar Spine (g/cm^2),BMDLS,BASELINE,2,XXX001,Placebo,M,45,AMERICAN INDIAN OR ALASKA NATIVE,N,34.336,36.242,1.906,0.053,>3% change from baseline,Y,Y,Y,LUNAR,1992-11-01,1992-11-01,0,N/A,N/A,N/A,N/A
101-000072,DXA BMD at Lumbar Spine (g/cm^2),BMDLS,MONTH 6,3,XXX001,Placebo,M,45,AMERICAN INDIAN OR ALASKA NATIVE,N,45.371,36.242,-9.129,-0.252,>3% change from baseline,Y,Y,Y,LUNAR,1992-11-01,1993-05-03,183,N/A,N/A,N/A,N/A
101-000072,DXA BMD at Lumbar Spine (g/cm^2),BMDLS,MONTH 12,4,XXX001,Placebo,M,45,AMERICAN INDIAN OR ALASKA NATIVE,N,28.968,36.242,7.274,0.201,>3% change from baseline,Y,Y,Y,LUNAR,1992-11-01,1993-11-01,365,N/A,N/A,N/A,N/A
101-000072,DXA BMD at Lumbar Spine (g/cm^2),BMDLS,MONTH 18,5,XXX001,Placebo,M,45,AMERICAN INDIAN OR ALASKA NATIVE,N,16.036,36.242,20.206,0.558,>3% change from baseline,Y,Y,Y,LUNAR,1992-11-01,1994-05-03,548,N/A,N/A,N/A,N/A
101-000072,DXA BMD at Lumbar Spine (g/cm^2),BMDLS,MONTH 24,6,XXX001,Placebo,M,45,AMERICAN INDIAN OR ALASKA NATIVE,N,47.007,36.242,-10.765,-0.297,>3% change from baseline,Y,Y,Y,LUNAR,1992-11-01,1994-11-01,730,N/A,N/A,N/A,N/A
101-000072,DXA BMD at Lumbar Spine (g/cm^2),BMDLS,MONTH 30,7,XXX001,Placebo,M,45,AMERICAN INDIAN OR ALASKA NATIVE,N,51.781,36.242,-15.539,-0.429,>3% change from baseline,Y,Y,Y,LUNAR,1992-11-01,1995-05-03,913,N/A,N/A,N/A,N/A
101-000072,DXA BMD at Lumbar Spine (g/cm^2),BMDLS,MONTH 36,8,XXX001,Placebo,M,45,AMERICAN INDIAN OR ALASKA NATIVE,N,40.248,36.242,-4.006,-0.111,>3% change from baseline,Y,Y,Y,LUNAR,1992-11-01,1995-11-01,1095,N/A,N/A,N/A,N/A
101-000073,DXA BMD at Lumbar Spine (g/cm^2),BMDLS,BASELINE,2,XXX001,Placebo,M,80,BLACK OR AFRICAN AMERICAN,N,42.303,29.214,-13.089,-0.448,>3% change from baseline,Y,Y,Y,LUNAR,1992-11-17,1992-11-17,0,N/A,N/A,N/A,N/A
101-000073,DXA BMD at Lumbar Spine (g/cm^2),BMDLS,MONTH 6,3,XXX001,Placebo,M,80,BLACK OR AFRICAN AMERICAN,N,22.068,29.214,7.146,0.245,>3% change from baseline,Y,Y,Y,LUNAR,1992-11-17,1993-05-19,183,N/A,N/A,N/A,N/A
101-000073,DXA BMD at Lumbar Spine (g/cm^2),BMDLS,MONTH 12,4,XXX001,Placebo,M,80,BLACK OR AFRICAN AMERICAN,N,39.580,29.214,-10.365,-0.355,>3% change from baseline,Y,Y,Y,LUNAR,1992-11-17,1993-11-17,365,N/A,N/A,N/A,N/A
101-000073,DXA BMD at Lumbar Spine (g/cm^2),BMDLS,MONTH 18,5,XXX001,Placebo,M,80,BLACK OR AFRICAN AMERICAN,N,46.527,29.214,-17.313,-0.593,>3% change from baseline,Y,Y,Y,LUNAR,1992-11-17,1994-05-19,548,N/A,N/A,N/A,N/A
101-000073,DXA BMD at Lumbar Spine (g/cm^2),BMDLS,MONTH 24,6,XXX001,Placebo,M,80,BLACK OR AFRICAN AMERICAN,N,46.780,29.214,-17.565,-0.601,>3% change from baseline,Y,Y,Y,LUNAR,1992-11-17,1994-11-17,730,N/A,N/A,N/A,N/A
101-000073,DXA BMD at Lumbar Spine (g/cm^2),BMDLS,MONTH 30,7,XXX001,Placebo,M,80,BLACK OR AFRICAN AMERICAN,N,27.444,29.214,1.770,0.061,>3% change from baseline,Y,Y,Y,LUNAR,1992-11-17,1995-05-19,913,N/A,N/A,N/A,N/A
101-000073,DXA BMD at Lumbar Spine (g/cm^2),BMDLS,MONTH 36,8,XXX001,Placebo,M,80,BLACK OR AFRICAN AMERICAN,N,45.035,29.214,-15.821,-0.542,>3% change from baseline,Y,Y,Y,LUNAR,1992-11-17,1995-11-17,1095,N/A,N/A,N/A,N/A
101-000074,DXA BMD at Lumbar Spine (g/cm^2),BMDLS,BASELINE,2,XXX001,Drug ABC,M,64,ASIAN,Y,46.121,45.415,-0.706,-0.016,,,Y,Y,LUNAR,1992-11-17,1992-11-17,0,N/A,N/A,N/A,N/A
101-000074,DXA BMD at Lumbar Spine (g/cm^2),BMDLS,MONTH 6,3,XXX001,Drug ABC,M,64,ASIAN,Y,43.822,45.415,1.593,0.035,>3% change from baseline,Y,Y,Y,LUNAR,1992-11-17,1993-05-19,183,N/A,N/A,N/A,N/A
101-000074,DXA BMD at Lumbar Spine (g/cm^2),BMDLS,MONTH 12,4,XXX001,Drug ABC,M,64,ASIAN,Y,53.100,45.415,-7.686,-0.169,>3% change from baseline,Y,Y,Y,LUNAR,1992-11-17,1993-11-17,365,N/A,N/A,N/A,N/A
101-000074,DXA BMD at Lumbar Spine (g/cm^2),BMDLS,MONTH 18,5,XXX001,Drug ABC,M,64,ASIAN,Y,49.276,45.415,-3.861,-0.085,>3% change from baseline,Y,Y,Y,LUNAR,1992-11-17,1994-05-19,548,N/A,N/A,N/A,N/A
101-000074,DXA BMD at Lumbar Spine (g/cm^2),BMDLS,MONTH 24,6,XXX001,Drug ABC,M,64,ASIAN,Y,40.121,45.415,5.294,0.117,>3% change from baseline,Y,Y,Y,LUNAR,1992-11-17,1994-11-17,730,N/A,N/A,N/A,N/A
101-000074,DXA BMD at Lumbar Spine (g/cm^2),BMDLS,MONTH 30,7,XXX001,Drug ABC,M,64,ASIAN,Y,40.143,45.415,5.272,0.116,>3% change from baseline,Y,Y,Y,LUNAR,1992-11-17,1995-05-19,913,N/A,N/A,N/A,N/A
101-000074,DXA BMD at Lumbar Spine (g/cm^2),BMDLS,MONTH 36,8,XXX001,Drug ABC,M,64,ASIAN,Y,34.823,45.415,10.591,0.233,>3% change from baseline,Y,Y,Y,LUNAR,1992-11-17,1995-11-17,1095,N/A,N/A,N/A,N/A
101-000075,DXA BMD at Lumbar Spine (g/cm^2),BMDLS,BASELINE,2,XXX001,Placebo,F,28,NATIVE HAWAIIAN OR OTHER PACIFIC ISLANDER,N,26.327,38.019,11.692,0.308,>3% change from baseline,Y,Y,Y,HOLOGIC,1992-11-05,1992-11-05,0,N/A,N/A,N/A,N/A
101-000075,DXA BMD at Lumbar Spine (g/cm^2),BMDLS,MONTH 6,3,XXX001,Placebo,F,28,NATIVE HAWAIIAN OR OTHER PACIFIC ISLANDER,N,32.414,38.019,5.604,0.147,>3% change from baseline,Y,Y,Y,HOLOGIC,1992-11-05,1993-05-07,183,N/A,N/A,N/A,N/A
101-000075,DXA BMD at Lumbar Spine (g/cm^2),BMDLS,MONTH 12,4,XXX001,Placebo,F,28,NATIVE HAWAIIAN OR OTHER PACIFIC ISLANDER,N,54.822,38.019,-16.803,-0.442,>3% change from baseline,Y,Y,Y,HOLOGIC,1992-11-05,1993-11-05,365,N/A,N/A,N/A,N/A
101-000075,DXA BMD at Lumbar Spine (g/cm^2),BMDLS,MONTH 18,5,XXX001,Placebo,F,28,NATIVE HAWAIIAN OR OTHER PACIFIC ISLANDER,N,36.692,38.019,1.327,0.035,>3% change from baseline,Y,Y,Y,HOLOGIC,1992-11-05,1994-05-07,548,N/A,N/A,N/A,N/A
101-000075,DXA BMD at Lumbar Spine (g/cm^2),BMDLS,MONTH 24,6,XXX001,Placebo,F,28,NATIVE HAWAIIAN OR OTHER PACIFIC ISLANDER,N,52.413,38.019,-14.395,-0.379,>3% change from baseline,Y,Y,Y,HOLOGIC,1992-11-05,1994-11-05,730,N/A,N/A,N/A,N/A
101-000075,DXA BMD at Lumbar Spine (g/cm^2),BMDLS,MONTH 30,7,XXX001,Placebo,F,28,NATIVE HAWAIIAN OR OTHER PACIFIC ISLANDER,N,22.616,38.019,15.403,0.405,>3% change from baseline,Y,Y,Y,HOLOGIC,1992-11-05,1995-05-07,913,N/A,N/A,N/A,N/A
101-000075,DXA BMD at Lumbar Spine (g/cm^2),BMDLS,MONTH 36,8,XXX001,Placebo,F,28,NATIVE HAWAIIAN OR OTHER PACIFIC ISLANDER,N,51.571,38.019,-13.552,-0.356,>3% change from baseline,Y,Y,Y,HOLOGIC,1992-11-05,1995-11-05,1095,N/A,N/A,N/A,N/A
101-000076,DXA BMD at Lumbar Spine (g/cm^2),BMDLS,BASELINE,2,XXX001,Drug ABC,M,45,WHITE,Y,23.068,54.040,30.971,0.573,>3% change from baseline,Y,Y,Y,HOLOGIC,1992-11-23,1992-11-23,0,N/A,N/A,N/A,N/A
101-000076,DXA BMD at Lumbar Spine (g/cm^2),BMDLS,MONTH 6,3,XXX001,Drug ABC,M,45,WHITE,Y,50.389,54.040,3.650,0.068,>3% change from baseline,Y,Y,Y,HOLOGIC,1992-11-23,1993-05-25,183,N/A,N/A,N/A,N/A
101-000076,DXA BMD at Lumbar Spine (g/cm^2),BMDLS,MONTH 12,4,XXX001,Drug ABC,M,45,WHITE,Y,15.825,54.040,38.214,0.707,>3% change from baseline,Y,Y,Y,HOLOGIC,1992-11-23,1993-11-23,365,N/A,N/A,N/A,N/A
101-000076,DXA BMD at Lumbar Spine (g/cm^2),BMDLS,MONTH 18,5,XXX001,Drug ABC,M,45,WHITE,Y,18.182,54.040,35.858,0.664,>3% change from baseline,Y,Y,Y,HOLOGIC,1992-11-23,1994-05-25,548,N/A,N/A,N/A,N/A
101-000076,DXA BMD at Lumbar Spine (g/cm^2),BMDLS,MONTH 24,6,XXX001,Drug ABC,M,45,WHITE,Y,12.485,54.040,41.554,0.769,>3% change from baseline,Y,Y,Y,HOLOGIC,1992-11-23,1994-11-23,730,N/A,N/A,N/A,N/A
101-000076,DXA BMD at Lumbar Spine (g/cm^2),BMDLS,MONTH 30,7,XXX001,Drug ABC,M,45,WHITE,Y,50.965,54.040,3.075,0.057,>3% change from baseline,Y,Y,Y,HOLOGIC,1992-11-23,1995-05-25,913,N/A,N/A,N/A,N/A
101-000076,DXA BMD at Lumbar Spine (g/cm^2),BMDLS,MONTH 36,8,XXX001,Drug ABC,M,45,WHITE,Y,18.966,54.040,35.074,0.649,>3% change from baseline,Y,Y,Y,HOLOGIC,1992-11-23,1995-11-23,1095,N/A,N/A,N/A,N/A
101-000077,DXA BMD at Lumbar Spine (g/cm^2),BMDLS,BASELINE,2,XXX001,Drug ABC,F,88,NATIVE HAWAIIAN OR OTHER PACIFIC ISLANDER,Y,31.681,16.173,-15.508,-0.959,>3% change from baseline,Y,Y,Y,LUNAR,1992-11-20,1992-11-20,0,N/A,N/A,N/A,N/A
101-000077,DXA BMD at Lumbar Spine (g/cm^2),BMDLS,MONTH 6,3,XXX001,Drug ABC,F,88,NATIVE HAWAIIAN OR OTHER PACIFIC ISLANDER,Y,18.573,16.173,-2.400,-0.148,>3% change from baseline,Y,Y,Y,LUNAR,1992-11-20,1993-05-22,183,N/A,N/A,N/A,N/A
101-000077,DXA BMD at Lumbar Spine (g/cm^2),BMDLS,MONTH 12,4,XXX001,Drug ABC,F,88,NATIVE HAWAIIAN OR OTHER PACIFIC ISLANDER,Y,47.115,16.173,-30.942,-1.913,>3% change from baseline,Y,Y,Y,LUNAR,1992-11-20,1993-11-20,365,N/A,N/A,N/A,N/A
101-000077,DXA BMD at Lumbar Spine (g/cm^2),BMDLS,MONTH 18,5,XXX001,Drug ABC,F,88,NATIVE HAWAIIAN OR OTHER PACIFIC ISLANDER,Y,55.418,16.173,-39.245,-2.427,>3% change from baseline,Y,Y,Y,LUNAR,1992-11-20,1994-05-22,548,N/A,N/A,N/A,N/A
101-000077,DXA BMD at Lumbar Spine (g/cm^2),BMDLS,MONTH 24,6,XXX001,Drug ABC,F,88,NATIVE HAWAIIAN OR OTHER PACIFIC ISLANDER,Y,17.389,16.173,-1.217,-0.075,>3% change from baseline,Y,Y,Y,LUNAR,1992-11-20,1994-11-20,730,N/A,N/A,N/A,N/A
101-000077,DXA BMD at Lumbar Spine (g/cm^2),BMDLS,MONTH 30,7,XXX001,Drug ABC,F,88,NATIVE HAWAIIAN OR OTHER PACIFIC ISLANDER,Y,49.656,16.173,-33.483,-2.070,>3% change from baseline,Y,Y,Y,LUNAR,1992-11-20,1995-05-22,913,N/A,N/A,N/A,N/A
101-000077,DXA BMD at Lumbar Spine (g/cm^2),BMDLS,MONTH 36,8,XXX001,Drug ABC,F,88,NATIVE HAWAIIAN OR OTHER PACIFIC ISLANDER,Y,44.645,16.173,-28.472,-1.760,>3% change from baseline,Y,Y,Y,LUNAR,1992-11-20,1995-11-20,1095,N/A,N/A,N/A,N/A
101-000078,DXA BMD at Lumbar Spine (g/cm^2),BMDLS,BASELINE,2,XXX001,Placebo,M,24,WHITE,N,27.521,40.332,12.811,0.318,>3% change from baseline,Y,Y,Y,LUNAR,1992-11-01,1992-11-01,0,N/A,N/A,N/A,N/A
101-000078,DXA BMD at Lumbar Spine (g/cm^2),BMDLS,MONTH 6,3,XXX001,Placebo,M,24,WHITE,N,27.034,40.332,13.298,0.330,>3% change from baseline,Y,Y,Y,LUNAR,1992-11-01,1993-05-03,183,N/A,N/A,N/A,N/A
101-000078,DXA BMD at Lumbar Spine (g/cm^2),BMDLS,MONTH 12,4,XXX001,Placebo,M,24,WHITE,N,16.680,40.332,23.652,0.586,>3% change from baseline,Y,Y,Y,LUNAR,1992-11-01,1993-11-01,365,N/A,N/A,N/A,N/A
101-000078,DXA BMD at Lumbar Spine (g/cm^2),BMDLS,MONTH 18,5,XXX001,Placebo,M,24,WHITE,N,46.410,40.332,-6.077,-0.151,>3% change from baseline,Y,Y,Y,LUNAR,1992-11-01,1994-05-03,548,N/A,N/A,N/A,N/A
101-000078,DXA BMD at Lumbar Spine (g/cm^2),BMDLS,MONTH 24,6,XXX001,Placebo,M,24,WHITE,N,41.313,40.332,-0.980,-0.024,,,Y,Y,LUNAR,1992-11-01,1994-11-01,730,N/A,N/A,N/A,N/A
101-000078,DXA BMD at Lumbar Spine (g/cm^2),BMDLS,MONTH 30,7,XXX001,Placebo,M,24,WHITE,N,15.283,40.332,25.050,0.621,>3% change from baseline,Y,Y,Y,LUNAR,1992-11-01,1995-05-03,913,N/A,N/A,N/A,N/A
101-000078,DXA BMD at Lumbar Spine (g/cm^2),BMDLS,MONTH 36,8,XXX001,Placebo,M,24,WHITE,N,41.079,40.332,-0.747,-0.019,,,Y,Y,LUNAR,1992-11-01,1995-11-01,1095,N/A,N/A,N/A,N/A
101-000079,DXA BMD at Lumbar Spine (g/cm^2),BMDLS,BASELINE,2,XXX001,Placebo,M,27,WHITE,N,41.200,21.441,-19.759,-0.922,>3% change from baseline,Y,Y,Y,LUNAR,1992-12-14,1992-12-14,0,N/A,N/A,N/A,N/A
101-000079,DXA BMD at Lumbar Spine (g/cm^2),BMDLS,MONTH 6,3,XXX001,Placebo,M,27,WHITE,N,46.641,21.441,-25.199,-1.175,>3% change from baseline,Y,Y,Y,LUNAR,1992-12-14,1993-06-15,183,N/A,N/A,N/A,N/A
101-000079,DXA BMD at Lumbar Spine (g/cm^2),BMDLS,MONTH 12,4,XXX001,Placebo,M,27,WHITE,N,53.165,21.441,-31.724,-1.480,>3% change from baseline,Y,Y,Y,LUNAR,1992-12-14,1993-12-14,365,N/A,N/A,N/A,N/A
101-000079,DXA BMD at Lumbar Spine (g/cm^2),BMDLS,MONTH 18,5,XXX001,Placebo,M,27,WHITE,N,22.958,21.441,-1.516,-0.071,>3% change from baseline,Y,Y,Y,LUNAR,1992-12-14,1994-06-15,548,N/A,N/A,N/A,N/A
101-000079,DXA BMD at Lumbar Spine (g/cm^2),BMDLS,MONTH 24,6,XXX001,Placebo,M,27,WHITE,N,44.583,21.441,-23.142,-1.079,>3% change from baseline,Y,Y,Y,LUNAR,1992-12-14,1994-12-14,730,N/A,N/A,N/A,N/A
101-000079,DXA BMD at Lumbar Spine (g/cm^2),BMDLS,MONTH 30,7,XXX001,Placebo,M,27,WHITE,N,45.610,21.441,-24.169,-1.127,>3% change from baseline,Y,Y,Y,LUNAR,1992-12-14,1995-06-15,913,N/A,N/A,N/A,N/A
101-000079,DXA BMD at Lumbar Spine (g/cm^2),BMDLS,MONTH 36,8,XXX001,Placebo,M,27,WHITE,N,31.295,21.441,-9.854,-0.460,>3% change from baseline,Y,Y,Y,LUNAR,1992-12-14,1995-12-14,1095,N/A,N/A,N/A,N/A
101-000080,DXA BMD at Lumbar Spine (g/cm^2),BMDLS,BASELINE,2,XXX001,Placebo,F,41,WHITE,N,48.088,19.406,-28.681,-1.478,>3% change from baseline,Y,Y,Y,HOLOGIC,1992-11-26,1992-11-26,0,N/A,N/A,N/A,N/A
101-000080,DXA BMD at Lumbar Spine (g/cm^2),BMDLS,MONTH 6,3,XXX001,Placebo,F,41,WHITE,N,29.761,19.406,-10.355,-0.534,>3% change from baseline,Y,Y,Y,HOLOGIC,1992-11-26,1993-05-28,183,N/A,N/A,N/A,N/A
101-000080,DXA BMD at Lumbar Spine (g/cm^2),BMDLS,MONTH 12,4,XXX001,Placebo,F,41,WHITE,N,29.335,19.406,-9.929,-0.512,>3% change from baseline,Y,Y,Y,HOLOGIC,1992-11-26,1993-11-26,365,N/A,N/A,N/A,N/A
101-000080,DXA BMD at Lumbar Spine (g/cm^2),BMDLS,MONTH 18,5,XXX001,Placebo,F,41,WHITE,N,31.458,19.406,-12.052,-0.621,>3% change from baseline,Y,Y,Y,HOLOGIC,1992-11-26,1994-05-28,548,N/A,N/A,N/A,N/A
101-000080,DXA BMD at Lumbar Spine (g/cm^2),BMDLS,MONTH 24,6,XXX001,Placebo,F,41,WHITE,N,12.779,19.406,6.627,0.341,>3% change from baseline,Y,Y,Y,HOLOGIC,1992-11-26,1994-11-26,730,N/A,N/A,N/A,N/A
101-000080,DXA BMD at Lumbar Spine (g/cm^2),BMDLS,MONTH 30,7,XXX001,Placebo,F,41,WHITE,N,50.493,19.406,-31.087,-1.602,>3% change from baseline,Y,Y,Y,HOLOGIC,1992-11-26,1995-05-28,913,N/A,N/A,N/A,N/A
101-000080,DXA BMD at Lumbar Spine (g/cm^2),BMDLS,MONTH 36,8,XXX001,Placebo,F,41,WHITE,N,14.864,19.406,4.542,0.234,>3% change from baseline,Y,Y,Y,HOLOGIC,1992-11-26,1995-11-26,1095,N/A,N/A,N/A,N/A
101-000081,DXA BMD at Lumbar Spine (g/cm^2),BMDLS,BASELINE,2,XXX001,Placebo,M,50,WHITE,N,44.292,27.639,-16.653,-0.603,>3% change from baseline,Y,Y,Y,HOLOGIC,1992-12-17,1992-12-17,0,N/A,N/A,N/A,N/A
101-000081,DXA BMD at Lumbar Spine (g/cm^2),BMDLS,MONTH 6,3,XXX001,Placebo,M,50,WHITE,N,43.729,27.639,-16.090,-0.582,>3% change from baseline,Y,Y,Y,HOLOGIC,1992-12-17,1993-06-18,183,N/A,N/A,N/A,N/A
101-000081,DXA BMD at Lumbar Spine (g/cm^2),BMDLS,MONTH 12,4,XXX001,Placebo,M,50,WHITE,N,50.806,27.639,-23.167,-0.838,>3% change from baseline,Y,Y,Y,HOLOGIC,1992-12-17,1993-12-17,365,N/A,N/A,N/A,N/A
101-000081,DXA BMD at Lumbar Spine (g/cm^2),BMDLS,MONTH 18,5,XXX001,Placebo,M,50,WHITE,N,19.758,27.639,7.881,0.285,>3% change from baseline,Y,Y,Y,HOLOGIC,1992-12-17,1994-06-18,548,N/A,N/A,N/A,N/A
101-000081,DXA BMD at Lumbar Spine (g/cm^2),BMDLS,MONTH 24,6,XXX001,Placebo,M,50,WHITE,N,11.795,27.639,15.843,0.573,>3% change from baseline,Y,Y,Y,HOLOGIC,1992-12-17,1994-12-17,730,N/A,N/A,N/A,N/A
101-000081,DXA BMD at Lumbar Spine (g/cm^2),BMDLS,MONTH 30,7,XXX001,Placebo,M,50,WHITE,N,48.280,27.639,-20.641,-0.747,>3% change from baseline,Y,Y,Y,HOLOGIC,1992-12-17,1995-06-18,913,N/A,N/A,N/A,N/A
101-000081,DXA BMD at Lumbar Spine (g/cm^2),BMDLS,MONTH 36,8,XXX001,Placebo,M,50,WHITE,N,39.421,27.639,-11.783,-0.426,>3% change from baseline,Y,Y,Y,HOLOGIC,1992-12-17,1995-12-17,1095,N/A,N/A,N/A,N/A
101-000082,DXA BMD at Lumbar Spine (g/cm^2),BMDLS,BASELINE,2,XXX001,Placebo,M,71,WHITE,N,39.536,36.788,-2.747,-0.075,>3% change from baseline,Y,Y,Y,HOLOGIC,1992-12-15,1992-12-15,0,N/A,N/A,N/A,N/A
101-000082,DXA BMD at Lumbar Spine (g/cm^2),BMDLS,MONTH 6,3,XXX001,Placebo,M,71,WHITE,N,37.564,36.788,-0.775,-0.021,,,Y,Y,HOLOGIC,1992-12-15,1993-06-16,183,N/A,N/A,N/A,N/A
101-000082,DXA BMD at Lumbar Spine (g/cm^2),BMDLS,MONTH 12,4,XXX001,Placebo,M,71,WHITE,N,14.136,36.788,22.653,0.616,>3% change from baseline,Y,Y,Y,HOLOGIC,1992-12-15,1993-12-15,365,N/A,N/A,N/A,N/A
101-000082,DXA BMD at Lumbar Spine (g/cm^2),BMDLS,MONTH 18,5,XXX001,Placebo,M,71,WHITE,N,52.635,36.788,-15.847,-0.431,>3% change from baseline,Y,Y,Y,HOLOGIC,1992-12-15,1994-06-16,548,N/A,N/A,N/A,N/A
101-000082,DXA BMD at Lumbar Spine (g/cm^2),BMDLS,MONTH 24,6,XXX001,Placebo,M,71,WHITE,N,55.839,36.788,-19.051,-0.518,>3% change from baseline,Y,Y,Y,HOLOGIC,1992-12-15,1994-12-15,730,N/A,N/A,N/A,N/A
101-000082,DXA BMD at Lumbar Spine (g/cm^2),BMDLS,MONTH 30,7,XXX001,Placebo,M,71,WHITE,N,47.793,36.788,-11.005,-0.299,>3% change from baseline,Y,Y,Y,HOLOGIC,1992-12-15,1995-06-16,913,N/A,N/A,N/A,N/A
101-000082,DXA BMD at Lumbar Spine (g/cm^2),BMDLS,MONTH 36,8,XXX001,Placebo,M,71,WHITE,N,11.860,36.788,24.928,0.678,>3% change from baseline,Y,Y,Y,HOLOGIC,1992-12-15,1995-12-15,1095,N/A,N/A,N/A,N/A
101-000083,DXA BMD at Lumbar Spine (g/cm^2),BMDLS,BASELINE,2,XXX001,Drug ABC,F,52,ASIAN,Y,46.824,13.722,-33.102,-2.412,>3% change from baseline,Y,Y,Y,HOLOGIC,1992-11-12,1992-11-12,0,N/A,N/A,N/A,N/A
101-000083,DXA BMD at Lumbar Spine (g/cm^2),BMDLS,MONTH 6,3,XXX001,Drug ABC,F,52,ASIAN,Y,27.685,13.722,-13.963,-1.018,>3% change from baseline,Y,Y,Y,HOLOGIC,1992-11-12,1993-05-14,183,N/A,N/A,N/A,N/A
101-000083,DXA BMD at Lumbar Spine (g/cm^2),BMDLS,MONTH 12,4,XXX001,Drug ABC,F,52,ASIAN,Y,50.212,13.722,-36.490,-2.659,>3% change from baseline,Y,Y,Y,HOLOGIC,1992-11-12,1993-11-12,365,N/A,N/A,N/A,N/A
101-000083,DXA BMD at Lumbar Spine (g/cm^2),BMDLS,MONTH 18,5,XXX001,Drug ABC,F,52,ASIAN,Y,12.137,13.722,1.585,0.116,>3% change from baseline,Y,Y,Y,HOLOGIC,1992-11-12,1994-05-14,548,N/A,N/A,N/A,N/A
101-000083,DXA BMD at Lumbar Spine (g/cm^2),BMDLS,MONTH 24,6,XXX001,Drug ABC,F,52,ASIAN,Y,56.050,13.722,-42.328,-3.085,>3% change from baseline,Y,Y,Y,HOLOGIC,1992-11-12,1994-11-12,730,N/A,N/A,N/A,N/A
101-000083,DXA BMD at Lumbar Spine (g/cm^2),BMDLS,MONTH 30,7,XXX001,Drug ABC,F,52,ASIAN,Y,45.329,13.722,-31.607,-2.303,>3% change from baseline,Y,Y,Y,HOLOGIC,1992-11-12,1995-05-14,913,N/A,N/A,N/A,N/A
101-000083,DXA BMD at Lumbar Spine (g/cm^2),BMDLS,MONTH 36,8,XXX001,Drug ABC,F,52,ASIAN,Y,46.370,13.722,-32.648,-2.379,>3% change from baseline,Y,Y,Y,HOLOGIC,1992-11-12,1995-11-12,1095,N/A,N/A,N/A,N/A
101-000084,DXA BMD at Lumbar Spine (g/cm^2),BMDLS,BASELINE,2,XXX001,Placebo,F,24,WHITE,N,26.178,12.904,-13.273,-1.029,>3% change from baseline,Y,Y,Y,HOLOGIC,1992-11-18,1992-11-18,0,N/A,N/A,N/A,N/A
101-000084,DXA BMD at Lumbar Spine (g/cm^2),BMDLS,MONTH 6,3,XXX001,Placebo,F,24,WHITE,N,20.886,12.904,-7.981,-0.618,>3% change from baseline,Y,Y,Y,HOLOGIC,1992-11-18,1993-05-20,183,N/A,N/A,N/A,N/A
101-000084,DXA BMD at Lumbar Spine (g/cm^2),BMDLS,MONTH 12,4,XXX001,Placebo,F,24,WHITE,N,31.611,12.904,-18.707,-1.450,>3% change from baseline,Y,Y,Y,HOLOGIC,1992-11-18,1993-11-18,365,N/A,N/A,N/A,N/A
101-000084,DXA BMD at Lumbar Spine (g/cm^2),BMDLS,MONTH 18,5,XXX001,Placebo,F,24,WHITE,N,40.062,12.904,-27.157,-2.105,>3% change from baseline,Y,Y,Y,HOLOGIC,1992-11-18,1994-05-20,548,N/A,N/A,N/A,N/A
101-000084,DXA BMD at Lumbar Spine (g/cm^2),BMDLS,MONTH 24,6,XXX001,Placebo,F,24,WHITE,N,36.163,12.904,-23.259,-1.802,>3% change from baseline,Y,Y,Y,HOLOGIC,1992-11-18,1994-11-18,730,N/A,N/A,N/A,N/A
101-000084,DXA BMD at Lumbar Spine (g/cm^2),BMDLS,MONTH 30,7,XXX001,Placebo,F,24,WHITE,N,31.916,12.904,-19.012,-1.473,>3% change from baseline,Y,Y,Y,HOLOGIC,1992-11-18,1995-05-20,913,N/A,N/A,N/A,N/A
101-000084,DXA BMD at Lumbar Spine (g/cm^2),BMDLS,MONTH 36,8,XXX001,Placebo,F,24,WHITE,N,29.001,12.904,-16.096,-1.247,>3% change from baseline,Y,Y,Y,HOLOGIC,1992-11-18,1995-11-18,1095,N/A,N/A,N/A,N/A
101-000085,DXA BMD at Lumbar Spine (g/cm^2),BMDLS,BASELINE,2,XXX001,Drug ABC,M,77,ASIAN,Y,22.755,40.142,17.387,0.433,>3% change from baseline,Y,Y,Y,HOLOGIC,1992-12-12,1992-12-12,0,N/A,N/A,N/A,N/A
101-000085,DXA BMD at Lumbar Spine (g/cm^2),BMDLS,MONTH 6,3,XXX001,Drug ABC,M,77,ASIAN,Y,40.008,40.142,0.134,0.003,,,Y,Y,HOLOGIC,1992-12-12,1993-06-13,183,N/A,N/A,N/A,N/A
101-000085,DXA BMD at Lumbar Spine (g/cm^2),BMDLS,MONTH 12,4,XXX001,Drug ABC,M,77,ASIAN,Y,41.089,40.142,-0.947,-0.024,,,Y,Y,HOLOGIC,1992-12-12,1993-12-12,365,N/A,N/A,N/A,N/A
101-000085,DXA BMD at Lumbar Spine (g/cm^2),BMDLS,MONTH 18,5,XXX001,Drug ABC,M,77,ASIAN,Y,44.192,40.142,-4.050,-0.101,>3% change from baseline,Y,Y,Y,HOLOGIC,1992-12-12,1994-06-13,548,N/A,N/A,N/A,N/A
101-000085,DXA BMD at Lumbar Spine (g/cm^2),BMDLS,MONTH 24,6,XXX001,Drug ABC,M,77,ASIAN,Y,24.898,40.142,15.244,0.380,>3% change from baseline,Y,Y,Y,HOLOGIC,1992-12-12,1994-12-12,730,N/A,N/A,N/A,N/A
101-000085,DXA BMD at Lumbar Spine (g/cm^2),BMDLS,MONTH 30,7,XXX001,Drug ABC,M,77,ASIAN,Y,36.915,40.142,3.227,0.080,>3% change from baseline,Y,Y,Y,HOLOGIC,1992-12-12,1995-06-13,913,N/A,N/A,N/A,N/A
101-000085,DXA BMD at Lumbar Spine (g/cm^2),BMDLS,MONTH 36,8,XXX001,Drug ABC,M,77,ASIAN,Y,21.478,40.142,18.664,0.465,>3% change from baseline,Y,Y,Y,HOLOGIC,1992-12-12,1995-12-12,1095,N/A,N/A,N/A,N/A
101-000086,DXA BMD at Lumbar Spine (g/cm^2),BMDLS,BASELINE,2,XXX001,Drug ABC,F,84,AMERICAN INDIAN OR ALASKA NATIVE,Y,21.496,33.362,11.866,0.356,>3% change from baseline,Y,Y,Y,LUNAR,1992-11-14,1992-11-14,0,N/A,N/A,N/A,N/A
101-000086,DXA BMD at Lumbar Spine (g/cm^2),BMDLS,MONTH 6,3,XXX001,Drug ABC,F,84,AMERICAN INDIAN OR ALASKA NATIVE,Y,23.832,33.362,9.530,0.286,>3% change from baseline,Y,Y,Y,LUNAR,1992-11-14,1993-05-16,183,N/A,N/A,N/A,N/A
101-000086,DXA BMD at Lumbar Spine (g/cm^2),BMDLS,MONTH 12,4,XXX001,Drug ABC,F,84,AMERICAN INDIAN OR ALASKA NATIVE,Y,42.883,33.362,-9.521,-0.285,>3% change from baseline,Y,Y,Y,LUNAR,1992-11-14,1993-11-14,365,N/A,N/A,N/A,N/A
101-000086,DXA BMD at Lumbar Spine (g/cm^2),BMDLS,MONTH 18,5,XXX001,Drug ABC,F,84,AMERICAN INDIAN OR ALASKA NATIVE,Y,34.965,33.362,-1.604,-0.048,>3% change from baseline,Y,Y,Y,LUNAR,1992-11-14,1994-05-16,548,N/A,N/A,N/A,N/A
101-000086,DXA BMD at Lumbar Spine (g/cm^2),BMDLS,MONTH 24,6,XXX001,Drug ABC,F,84,AMERICAN INDIAN OR ALASKA NATIVE,Y,21.200,33.362,12.161,0.365,>3% change from baseline,Y,Y,Y,LUNAR,1992-11-14,1994-11-14,730,N/A,N/A,N/A,N/A
101-000086,DXA BMD at Lumbar Spine (g/cm^2),BMDLS,MONTH 30,7,XXX001,Drug ABC,F,84,AMERICAN INDIAN OR ALASKA NATIVE,Y,45.309,33.362,-11.948,-0.358,>3% change from baseline,Y,Y,Y,LUNAR,1992-11-14,1995-05-16,913,N/A,N/A,N/A,N/A
101-000086,DXA BMD at Lumbar Spine (g/cm^2),BMDLS,MONTH 36,8,XXX001,Drug ABC,F,84,AMERICAN INDIAN OR ALASKA NATIVE,Y,22.256,33.362,11.106,0.333,>3% change from baseline,Y,Y,Y,LUNAR,1992-11-14,1995-11-14,1095,N/A,N/A,N/A,N/A
101-000087,DXA BMD at Lumbar Spine (g/cm^2),BMDLS,BASELINE,2,XXX001,Drug ABC,F,46,WHITE,Y,26.300,25.782,-0.518,-0.020,,,Y,Y,HOLOGIC,1992-12-13,1992-12-13,0,N/A,N/A,N/A,N/A
101-000087,DXA BMD at Lumbar Spine (g/cm^2),BMDLS,MONTH 6,3,XXX001,Drug ABC,F,46,WHITE,Y,54.101,25.782,-28.318,-1.098,>3% change from baseline,Y,Y,Y,HOLOGIC,1992-12-13,1993-06-14,183,N/A,N/A,N/A,N/A
101-000087,DXA BMD at Lumbar Spine (g/cm^2),BMDLS,MONTH 12,4,XXX001,Drug ABC,F,46,WHITE,Y,28.889,25.782,-3.107,-0.121,>3% change from baseline,Y,Y,Y,HOLOGIC,1992-12-13,1993-12-13,365,N/A,N/A,N/A,N/A
101-000087,DXA BMD at Lumbar Spine (g/cm^2),BMDLS,MONTH 18,5,XXX001,Drug ABC,F,46,WHITE,Y,28.862,25.782,-3.080,-0.119,>3% change from baseline,Y,Y,Y,HOLOGIC,1992-12-13,1994-06-14,548,N/A,N/A,N/A,N/A
101-000087,DXA BMD at Lumbar Spine (g/cm^2),BMDLS,MONTH 24,6,XXX001,Drug ABC,F,46,WHITE,Y,54.825,25.782,-29.043,-1.126,>3% change from baseline,Y,Y,Y,HOLOGIC,1992-12-13,1994-12-13,730,N/A,N/A,N/A,N/A
101-000087,DXA BMD at Lumbar Spine (g/cm^2),BMDLS,MONTH 30,7,XXX001,Drug ABC,F,46,WHITE,Y,25.430,25.782,0.352,0.014,,,Y,Y,HOLOGIC,1992-12-13,1995-06-14,913,N/A,N/A,N/A,N/A
101-000087,DXA BMD at Lumbar Spine (g/cm^2),BMDLS,MONTH 36,8,XXX001,Drug ABC,F,46,WHITE,Y,26.512,25.782,-0.730,-0.028,,,Y,Y,HOLOGIC,1992-12-13,1995-12-13,1095,N/A,N/A,N/A,N/A
101-000088,DXA BMD at Lumbar Spine (g/cm^2),BMDLS,BASELINE,2,XXX001,Placebo,M,35,WHITE,N,46.644,47.167,0.523,0.011,,,Y,Y,LUNAR,1992-10-23,1992-10-23,0,N/A,N/A,N/A,N/A
101-000088,DXA BMD at Lumbar Spine (g/cm^2),BMDLS,MONTH 6,3,XXX001,Placebo,M,35,WHITE,N,49.539,47.167,-2.372,-0.050,>3% change from baseline,Y,Y,Y,LUNAR,1992-10-23,1993-04-24,183,N/A,N/A,N/A,N/A
101-000088,DXA BMD at Lumbar Spine (g/cm^2),BMDLS,MONTH 12,4,XXX001,Placebo,M,35,WHITE,N,22.423,47.167,24.744,0.525,>3% change from baseline,Y,Y,Y,LUNAR,1992-10-23,1993-10-23,365,N/A,N/A,N/A,N/A
101-000088,DXA BMD at Lumbar Spine (g/cm^2),BMDLS,MONTH 18,5,XXX001,Placebo,M,35,WHITE,N,33.935,47.167,13.232,0.281,>3% change from baseline,Y,Y,Y,LUNAR,1992-10-23,1994-04-24,548,N/A,N/A,N/A,N/A
101-000088,DXA BMD at Lumbar Spine (g/cm^2),BMDLS,MONTH 24,6,XXX001,Placebo,M,35,WHITE,N,23.046,47.167,24.121,0.511,>3% change from baseline,Y,Y,Y,LUNAR,1992-10-23,1994-10-23,730,N/A,N/A,N/A,N/A
101-000088,DXA BMD at Lumbar Spine (g/cm^2),BMDLS,MONTH 30,7,XXX001,Placebo,M,35,WHITE,N,56.376,47.167,-9.209,-0.195,>3% change from baseline,Y,Y,Y,LUNAR,1992-10-23,1995-04-24,913,N/A,N/A,N/A,N/A
101-000088,DXA BMD at Lumbar Spine (g/cm^2),BMDLS,MONTH 36,8,XXX001,Placebo,M,35,WHITE,N,26.851,47.167,20.316,0.431,>3% change from baseline,Y,Y,Y,LUNAR,1992-10-23,1995-10-23,1095,N/A,N/A,N/A,N/A
101-000089,DXA BMD at Lumbar Spine (g/cm^2),BMDLS,BASELINE,2,XXX001,Placebo,F,69,BLACK OR AFRICAN AMERICAN,N,26.786,23.856,-2.930,-0.123,>3% change from baseline,Y,Y,Y,LUNAR,1992-10-29,1992-10-29,0,N/A,N/A,N/A,N/A
101-000089,DXA BMD at Lumbar Spine (g/cm^2),BMDLS,MONTH 6,3,XXX001,Placebo,F,69,BLACK OR AFRICAN AMERICAN,N,47.842,23.856,-23.986,-1.005,>3% change from baseline,Y,Y,Y,LUNAR,1992-10-29,1993-04-30,183,N/A,N/A,N/A,N/A
101-000089,DXA BMD at Lumbar Spine (g/cm^2),BMDLS,MONTH 12,4,XXX001,Placebo,F,69,BLACK OR AFRICAN AMERICAN,N,19.137,23.856,4.719,0.198,>3% change from baseline,Y,Y,Y,LUNAR,1992-10-29,1993-10-29,365,N/A,N/A,N/A,N/A
101-000089,DXA BMD at Lumbar Spine (g/cm^2),BMDLS,MONTH 18,5,XXX001,Placebo,F,69,BLACK OR AFRICAN AMERICAN,N,23.481,23.856,0.375,0.016,,,Y,Y,LUNAR,1992-10-29,1994-04-30,548,N/A,N/A,N/A,N/A
101-000089,DXA BMD at Lumbar Spine (g/cm^2),BMDLS,MONTH 24,6,XXX001,Placebo,F,69,BLACK OR AFRICAN AMERICAN,N,30.376,23.856,-6.520,-0.273,>3% change from baseline,Y,Y,Y,LUNAR,1992-10-29,1994-10-29,730,N/A,N/A,N/A,N/A
101-000089,DXA BMD at Lumbar Spine (g/cm^2),BMDLS,MONTH 30,7,XXX001,Placebo,F,69,BLACK OR AFRICAN AMERICAN,N,34.945,23.856,-11.089,-0.465,>3% change from baseline,Y,Y,Y,LUNAR,1992-10-29,1995-04-30,913,N/A,N/A,N/A,N/A
101-000089,DXA BMD at Lumbar Spine (g/cm^2),BMDLS,MONTH 36,8,XXX001,Placebo,F,69,BLACK OR AFRICAN AMERICAN,N,24.534,23.856,-0.678,-0.028,,,Y,Y,LUNAR,1992-10-29,1995-10-29,1095,N/A,N/A,N/A,N/A
101-000090,DXA BMD at Lumbar Spine (g/cm^2),BMDLS,BASELINE,2,XXX001,Placebo,M,53,WHITE,N,22.255,15.836,-6.419,-0.405,>3% change from baseline,Y,Y,Y,HOLOGIC,1992-12-02,1992-12-02,0,N/A,N/A,N/A,N/A
101-000090,DXA BMD at Lumbar Spine (g/cm^2),BMDLS,MONTH 6,3,XXX001,Placebo,M,53,WHITE,N,29.869,15.836,-14.033,-0.886,>3% change from baseline,Y,Y,Y,HOLOGIC,1992-12-02,1993-06-03,183,N/A,N/A,N/A,N/A
101-000090,DXA BMD at Lumbar Spine (g/cm^2),BMDLS,MONTH 12,4,XXX001,Placebo,M,53,WHITE,N,51.880,15.836,-36.044,-2.276,>3% change from baseline,Y,Y,Y,HOLOGIC,1992-12-02,1993-12-02,365,N/A,N/A,N/A,N/A
101-000090,DXA BMD at Lumbar Spine (g/cm^2),BMDLS,MONTH 18,5,XXX001,Placebo,M,53,WHITE,N,48.921,15.836,-33.085,-2.089,>3% change from baseline,Y,Y,Y,HOLOGIC,1992-12-02,1994-06-03,548,N/A,N/A,N/A,N/A
101-000090,DXA BMD at Lumbar Spine (g/cm^2),BMDLS,MONTH 24,6,XXX001,Placebo,M,53,WHITE,N,30.518,15.836,-14.681,-0.927,>3% change from baseline,Y,Y,Y,HOLOGIC,1992-12-02,1994-12-02,730,N/A,N/A,N/A,N/A
101-000090,DXA BMD at Lumbar Spine (g/cm^2),BMDLS,MONTH 30,7,XXX001,Placebo,M,53,WHITE,N,14.536,15.836,1.300,0.082,>3% change from baseline,Y,Y,Y,HOLOGIC,1992-12-02,1995-06-03,913,N/A,N/A,N/A,N/A
101-000090,DXA BMD at Lumbar Spine (g/cm^2),BMDLS,MONTH 36,8,XXX001,Placebo,M,53,WHITE,N,49.846,15.836,-34.010,-2.148,>3% change from baseline,Y,Y,Y,HOLOGIC,1992-12-02,1995-12-02,1095,N/A,N/A,N/A,N/A
101-000091,DXA BMD at Lumbar Spine (g/cm^2),BMDLS,BASELINE,2,XXX001,Placebo,F,72,WHITE,N,14.711,44.997,30.286,0.673,>3% change from baseline,Y,Y,Y,HOLOGIC,1992-11-09,1992-11-09,0,N/A,N/A,N/A,N/A
101-000091,DXA BMD at Lumbar Spine (g/cm^2),BMDLS,MONTH 6,3,XXX001,Placebo,F,72,WHITE,N,29.092,44.997,15.905,0.353,>3% change from baseline,Y,Y,Y,HOLOGIC,1992-11-09,1993-05-11,183,N/A,N/A,N/A,N/A
101-000091,DXA BMD at Lumbar Spine (g/cm^2),BMDLS,MONTH 12,4,XXX001,Placebo,F,72,WHITE,N,36.013,44.997,8.984,0.200,>3% change from baseline,Y,Y,Y,HOLOGIC,1992-11-09,1993-11-09,365,N/A,N/A,N/A,N/A
101-000091,DXA BMD at Lumbar Spine (g/cm^2),BMDLS,MONTH 18,5,XXX001,Placebo,F,72,WHITE,N,45.718,44.997,-0.720,-0.016,,,Y,Y,HOLOGIC,1992-11-09,1994-05-11,548,N/A,N/A,N/A,N/A
101-000091,DXA BMD at Lumbar Spine (g/cm^2),BMDLS,MONTH 24,6,XXX001,Placebo,F,72,WHITE,N,22.206,44.997,22.791,0.506,>3% change from baseline,Y,Y,Y,HOLOGIC,1992-11-09,1994-11-09,730,N/A,N/A,N/A,N/A
101-000091,DXA BMD at Lumbar Spine (g/cm^2),BMDLS,MONTH 30,7,XXX001,Placebo,F,72,WHITE,N,45.913,44.997,-0.916,-0.020,,,Y,Y,HOLOGIC,1992-11-09,1995-05-11,913,N/A,N/A,N/A,N/A
101-000091,DXA BMD at Lumbar Spine (g/cm^2),BMDLS,MONTH 36,8,XXX001,Placebo,F,72,WHITE,N,27.507,44.997,17.490,0.389,>3% change from baseline,Y,Y,Y,HOLOGIC,1992-11-09,1995-11-09,1095,N/A,N/A,N/A,N/A
101-000092,DXA BMD at Lumbar Spine (g/cm^2),BMDLS,BASELINE,2,XXX001,Placebo,F,73,WHITE,N,47.356,31.239,-16.116,-0.516,>3% change from baseline,Y,Y,Y,HOLOGIC,1992-12-07,1992-12-07,0,N/A,N/A,N/A,N/A
101-000092,DXA BMD at Lumbar Spine (g/cm^2),BMDLS,MONTH 6,3,XXX001,Placebo,F,73,WHITE,N,30.509,31.239,0.730,0.023,,,Y,Y,HOLOGIC,1992-12-07,1993-06-08,183,N/A,N/A,N/A,N/A
101-000092,DXA BMD at Lumbar Spine (g/cm^2),BMDLS,MONTH 12,4,XXX001,Placebo,F,73,WHITE,N,16.224,31.239,15.015,0.481,>3% change from baseline,Y,Y,Y,HOLOGIC,1992-12-07,1993-12-07,365,N/A,N/A,N/A,N/A
101-000092,DXA BMD at Lumbar Spine (g/cm^2),BMDLS,MONTH 18,5,XXX001,Placebo,F,73,WHITE,N,42.435,31.239,-11.195,-0.358,>3% change from baseline,Y,Y,Y,HOLOGIC,1992-12-07,1994-06-08,548,N/A,N/A,N/A,N/A
101-000092,DXA BMD at Lumbar Spine (g/cm^2),BMDLS,MONTH 24,6,XXX001,Placebo,F,73,WHITE,N,19.987,31.239,11.252,0.360,>3% change from baseline,Y,Y,Y,HOLOGIC,1992-12-07,1994-12-07,730,N/A,N/A,N/A,N/A
101-000092,DXA BMD at Lumbar Spine (g/cm^2),BMDLS,MONTH 30,7,XXX001,Placebo,F,73,WHITE,N,44.825,31.239,-13.586,-0.435,>3% change from baseline,Y,Y,Y,HOLOGIC,1992-12-07,1995-06-08,913,N/A,N/A,N/A,N/A
101-000092,DXA BMD at Lumbar Spine (g/cm^2),BMDLS,MONTH 36,8,XXX001,Placebo,F,73,WHITE,N,23.721,31.239,7.518,0.241,>3% change from baseline,Y,Y,Y,HOLOGIC,1992-12-07,1995-12-07,1095,N/A,N/A,N/A,N/A
101-000093,DXA BMD at Lumbar Spine (g/cm^2),BMDLS,BASELINE,2,XXX001,Placebo,F,78,WHITE,N,23.090,30.196,7.106,0.235,>3% change from baseline,Y,Y,Y,HOLOGIC,1992-11-13,1992-11-13,0,N/A,N/A,N/A,N/A
101-000093,DXA BMD at Lumbar Spine (g/cm^2),BMDLS,MONTH 6,3,XXX001,Placebo,F,78,WHITE,N,44.571,30.196,-14.375,-0.476,>3% change from baseline,Y,Y,Y,HOLOGIC,1992-11-13,1993-05-15,183,N/A,N/A,N/A,N/A
101-000093,DXA BMD at Lumbar Spine (g/cm^2),BMDLS,MONTH 12,4,XXX001,Placebo,F,78,WHITE,N,43.943,30.196,-13.747,-0.455,>3% change from baseline,Y,Y,Y,HOLOGIC,1992-11-13,1993-11-13,365,N/A,N/A,N/A,N/A
101-000093,DXA BMD at Lumbar Spine (g/cm^2),BMDLS,MONTH 18,5,XXX001,Placebo,F,78,WHITE,N,55.495,30.196,-25.299,-0.838,>3% change from baseline,Y,Y,Y,HOLOGIC,1992-11-13,1994-05-15,548,N/A,N/A,N/A,N/A
101-000093,DXA BMD at Lumbar Spine (g/cm^2),BMDLS,MONTH 24,6,XXX001,Placebo,F,78,WHITE,N,21.486,30.196,8.710,0.288,>3% change from baseline,Y,Y,Y,HOLOGIC,1992-11-13,1994-11-13,730,N/A,N/A,N/A,N/A
101-000093,DXA BMD at Lumbar Spine (g/cm^2),BMDLS,MONTH 30,7,XXX001,Placebo,F,78,WHITE,N,19.765,30.196,10.431,0.345,>3% change from baseline,Y,Y,Y,HOLOGIC,1992-11-13,1995-05-15,913,N/A,N/A,N/A,N/A
101-000093,DXA BMD at Lumbar Spine (g/cm^2),BMDLS,MONTH 36,8,XXX001,Placebo,F,78,WHITE,N,54.795,30.196,-24.599,-0.815,>3% change from baseline,Y,Y,Y,HOLOGIC,1992-11-13,1995-11-13,1095,N/A,N/A,N/A,N/A
101-000094,DXA BMD at Lumbar Spine (g/cm^2),BMDLS,BASELINE,2,XXX001,Drug ABC,F,42,AMERICAN INDIAN OR ALASKA NATIVE,Y,30.773,33.511,2.737,0.082,>3% change from baseline,Y,Y,Y,HOLOGIC,1992-12-06,1992-12-06,0,N/A,N/A,N/A,N/A
101-000094,DXA BMD at Lumbar Spine (g/cm^2),BMDLS,MONTH 6,3,XXX001,Drug ABC,F,42,AMERICAN INDIAN OR ALASKA NATIVE,Y,40.657,33.511,-7.146,-0.213,>3% change from baseline,Y,Y,Y,HOLOGIC,1992-12-06,1993-06-07,183,N/A,N/A,N/A,N/A
101-000094,DXA BMD at Lumbar Spine (g/cm^2),BMDLS,MONTH 12,4,XXX001,Drug ABC,F,42,AMERICAN INDIAN OR ALASKA NATIVE,Y,54.601,33.511,-21.090,-0.629,>3% change from baseline,Y,Y,Y,HOLOGIC,1992-12-06,1993-12-06,365,N/A,N/A,N/A,N/A
101-000094,DXA BMD at Lumbar Spine (g/cm^2),BMDLS,MONTH 18,5,XXX001,Drug ABC,F,42,AMERICAN INDIAN OR ALASKA NATIVE,Y,43.250,33.511,-9.739,-0.291,>3% change from baseline,Y,Y,Y,HOLOGIC,1992-12-06,1994-06-07,548,N/A,N/A,N/A,N/A
101-000094,DXA BMD at Lumbar Spine (g/cm^2),BMDLS,MONTH 24,6,XXX001,Drug ABC,F,42,AMERICAN INDIAN OR ALASKA NATIVE,Y,33.508,33.511,0.003,0.000,,,Y,Y,HOLOGIC,1992-12-06,1994-12-06,730,N/A,N/A,N/A,N/A
101-000094,DXA BMD at Lumbar Spine (g/cm^2),BMDLS,MONTH 30,7,XXX001,Drug ABC,F,42,AMERICAN INDIAN OR ALASKA NATIVE,Y,22.487,33.511,11.024,0.329,>3% change from baseline,Y,Y,Y,HOLOGIC,1992-12-06,1995-06-07,913,N/A,N/A,N/A,N/A
101-000094,DXA BMD at Lumbar Spine (g/cm^2),BMDLS,MONTH 36,8,XXX001,Drug ABC,F,42,AMERICAN INDIAN OR ALASKA NATIVE,Y,42.087,33.511,-8.576,-0.256,>3% change from baseline,Y,Y,Y,HOLOGIC,1992-12-06,1995-12-06,1095,N/A,N/A,N/A,N/A
101-000095,DXA BMD at Lumbar Spine (g/cm^2),BMDLS,BASELINE,2,XXX001,Placebo,F,44,AMERICAN INDIAN OR ALASKA NATIVE,N,46.861,22.900,-23.961,-1.046,>3% change from baseline,Y,Y,Y,HOLOGIC,1992-10-24,1992-10-24,0,N/A,N/A,N/A,N/A
101-000095,DXA BMD at Lumbar Spine (g/cm^2),BMDLS,MONTH 6,3,XXX001,Placebo,F,44,AMERICAN INDIAN OR ALASKA NATIVE,N,50.865,22.900,-27.965,-1.221,>3% change from baseline,Y,Y,Y,HOLOGIC,1992-10-24,1993-04-25,183,N/A,N/A,N/A,N/A
101-000095,DXA BMD at Lumbar Spine (g/cm^2),BMDLS,MONTH 12,4,XXX001,Placebo,F,44,AMERICAN INDIAN OR ALASKA NATIVE,N,50.528,22.900,-27.628,-1.206,>3% change from baseline,Y,Y,Y,HOLOGIC,1992-10-24,1993-10-24,365,N/A,N/A,N/A,N/A
101-000095,DXA BMD at Lumbar Spine (g/cm^2),BMDLS,MONTH 18,5,XXX001,Placebo,F,44,AMERICAN INDIAN OR ALASKA NATIVE,N,40.421,22.900,-17.521,-0.765,>3% change from baseline,Y,Y,Y,HOLOGIC,1992-10-24,1994-04-25,548,N/A,N/A,N/A,N/A
101-000095,DXA BMD at Lumbar Spine (g/cm^2),BMDLS,MONTH 24,6,XXX001,Placebo,F,44,AMERICAN INDIAN OR ALASKA NATIVE,N,40.272,22.900,-17.371,-0.759,>3% change from baseline,Y,Y,Y,HOLOGIC,1992-10-24,1994-10-24,730,N/A,N/A,N/A,N/A
101-000095,DXA BMD at Lumbar Spine (g/cm^2),BMDLS,MONTH 30,7,XXX001,Placebo,F,44,AMERICAN INDIAN OR ALASKA NATIVE,N,56.222,22.900,-33.322,-1.455,>3% change from baseline,Y,Y,Y,HOLOGIC,1992-10-24,1995-04-25,913,N/A,N/A,N/A,N/A
101-000095,DXA BMD at Lumbar Spine (g/cm^2),BMDLS,MONTH 36,8,XXX001,Placebo,F,44,AMERICAN INDIAN OR ALASKA NATIVE,N,28.088,22.900,-5.188,-0.227,>3% change from baseline,Y,Y,Y,HOLOGIC,1992-10-24,1995-10-24,1095,N/A,N/A,N/A,N/A
101-000096,DXA BMD at Lumbar Spine (g/cm^2),BMDLS,BASELINE,2,XXX001,Placebo,M,50,WHITE,N,23.849,37.463,13.614,0.363,>3% change from baseline,Y,Y,Y,LUNAR,1992-12-11,1992-12-11,0,N/A,N/A,N/A,N/A
101-000096,DXA BMD at Lumbar Spine (g/cm^2),BMDLS,MONTH 6,3,XXX001,Placebo,M,50,WHITE,N,54.947,37.463,-17.484,-0.467,>3% change from baseline,Y,Y,Y,LUNAR,1992-12-11,1993-06-12,183,N/A,N/A,N/A,N/A
101-000096,DXA BMD at Lumbar Spine (g/cm^2),BMDLS,MONTH 12,4,XXX001,Placebo,M,50,WHITE,N,49.983,37.463,-12.520,-0.334,>3% change from baseline,Y,Y,Y,LUNAR,1992-12-11,1993-12-11,365,N/A,N/A,N/A,N/A
101-000096,DXA BMD at Lumbar Spine (g/cm^2),BMDLS,MONTH 18,5,XXX001,Placebo,M,50,WHITE,N,36.479,37.463,0.985,0.026,,,Y,Y,LUNAR,1992-12-11,1994-06-12,548,N/A,N/A,N/A,N/A
101-000096,DXA BMD at Lumbar Spine (g/cm^2),BMDLS,MONTH 24,6,XXX001,Placebo,M,50,WHITE,N,34.416,37.463,3.047,0.081,>3% change from baseline,Y,Y,Y,LUNAR,1992-12-11,1994-12-11,730,N/A,N/A,N/A,N/A
101-000096,DXA BMD at Lumbar Spine (g/cm^2),BMDLS,MONTH 30,7,XXX001,Placebo,M,50,WHITE,N,40.656,37.463,-3.192,-0.085,>3% change from baseline,Y,Y,Y,LUNAR,1992-12-11,1995-06-12,913,N/A,N/A,N/A,N/A
101-000096,DXA BMD at Lumbar Spine (g/cm^2),BMDLS,MONTH 36,8,XXX001,Placebo,M,50,WHITE,N,12.676,37.463,24.787,0.662,>3% change from baseline,Y,Y,Y,LUNAR,1992-12-11,1995-12-11,1095,N/A,N/A,N/A,N/A
101-000097,DXA BMD at Lumbar Spine (g/cm^2),BMDLS,BASELINE,2,XXX001,Drug ABC,M,77,WHITE,Y,21.029,30.046,9.016,0.300,>3% change from baseline,Y,Y,Y,LUNAR,1992-11-05,1992-11-05,0,N/A,N/A,N/A,N/A
101-000097,DXA BMD at Lumbar Spine (g/cm^2),BMDLS,MONTH 6,3,XXX001,Drug ABC,M,77,WHITE,Y,52.298,30.046,-22.252,-0.741,>3% change from baseline,Y,Y,Y,LUNAR,1992-11-05,1993-05-07,183,N/A,N/A,N/A,N/A
101-000097,DXA BMD at Lumbar Spine (g/cm^2),BMDLS,MONTH 12,4,XXX001,Drug ABC,M,77,WHITE,Y,29.397,30.046,0.649,0.022,,,Y,Y,LUNAR,1992-11-05,1993-11-05,365,N/A,N/A,N/A,N/A
101-000097,DXA BMD at Lumbar Spine (g/cm^2),BMDLS,MONTH 18,5,XXX001,Drug ABC,M,77,WHITE,Y,43.764,30.046,-13.718,-0.457,>3% change from baseline,Y,Y,Y,LUNAR,1992-11-05,1994-05-07,548,N/A,N/A,N/A,N/A
101-000097,DXA BMD at Lumbar Spine (g/cm^2),BMDLS,MONTH 24,6,XXX001,Drug ABC,M,77,WHITE,Y,16.962,30.046,13.084,0.435,>3% change from baseline,Y,Y,Y,LUNAR,1992-11-05,1994-11-05,730,N/A,N/A,N/A,N/A
101-000097,DXA BMD at Lumbar Spine (g/cm^2),BMDLS,MONTH 30,7,XXX001,Drug ABC,M,77,WHITE,Y,38.916,30.046,-8.870,-0.295,>3% change from baseline,Y,Y,Y,LUNAR,1992-11-05,1995-05-07,913,N/A,N/A,N/A,N/A
101-000097,DXA BMD at Lumbar Spine (g/cm^2),BMDLS,MONTH 36,8,XXX001,Drug ABC,M,77,WHITE,Y,22.204,30.046,7.842,0.261,>3% change from baseline,Y,Y,Y,LUNAR,1992-11-05,1995-11-05,1095,N/A,N/A,N/A,N/A
101-000098,DXA BMD at Lumbar Spine (g/cm^2),BMDLS,BASELINE,2,XXX001,Placebo,F,58,NATIVE HAWAIIAN OR OTHER PACIFIC ISLANDER,N,47.261,52.716,5.455,0.103,>3% change from baseline,Y,Y,Y,LUNAR,1992-12-18,1992-12-18,0,N/A,N/A,N/A,N/A
101-000098,DXA BMD at Lumbar Spine (g/cm^2),BMDLS,MONTH 6,3,XXX001,Placebo,F,58,NATIVE HAWAIIAN OR OTHER PACIFIC ISLANDER,N,53.047,52.716,-0.331,-0.006,,,Y,Y,LUNAR,1992-12-18,1993-06-19,183,N/A,N/A,N/A,N/A
101-000098,DXA BMD at Lumbar Spine (g/cm^2),BMDLS,MONTH 12,4,XXX001,Placebo,F,58,NATIVE HAWAIIAN OR OTHER PACIFIC ISLANDER,N,47.052,52.716,5.664,0.107,>3% change from baseline,Y,Y,Y,LUNAR,1992-12-18,1993-12-18,365,N/A,N/A,N/A,N/A
101-000098,DXA BMD at Lumbar Spine (g/cm^2),BMDLS,MONTH 18,5,XXX001,Placebo,F,58,NATIVE HAWAIIAN OR OTHER PACIFIC ISLANDER,N,37.246,52.716,15.471,0.293,>3% change from baseline,Y,Y,Y,LUNAR,1992-12-18,1994-06-19,548,N/A,N/A,N/A,N/A
101-000098,DXA BMD at Lumbar Spine (g/cm^2),BMDLS,MONTH 24,6,XXX001,Placebo,F,58,NATIVE HAWAIIAN OR OTHER PACIFIC ISLANDER,N,33.170,52.716,19.546,0.371,>3% change from baseline,Y,Y,Y,LUNAR,1992-12-18,1994-12-18,730,N/A,N/A,N/A,N/A
101-000098,DXA BMD at Lumbar Spine (g/cm^2),BMDLS,MONTH 30,7,XXX001,Placebo,F,58,NATIVE HAWAIIAN OR OTHER PACIFIC ISLANDER,N,31.179,52.716,21.538,0.409,>3% change from baseline,Y,Y,Y,LUNAR,1992-12-18,1995-06-19,913,N/A,N/A,N/A,N/A
101-000098,DXA BMD at Lumbar Spine (g/cm^2),BMDLS,MONTH 36,8,XXX001,Placebo,F,58,NATIVE HAWAIIAN OR OTHER PACIFIC ISLANDER,N,55.443,52.716,-2.727,-0.052,>3% change from baseline,Y,Y,Y,LUNAR,1992-12-18,1995-12-18,1095,N/A,N/A,N/A,N/A
101-000099,DXA BMD at Lumbar Spine (g/cm^2),BMDLS,BASELINE,2,XXX001,Drug ABC,F,83,BLACK OR AFRICAN AMERICAN,Y,19.753,42.072,22.319,0.530,>3% change from baseline,Y,Y,Y,LUNAR,1992-11-13,1992-11-13,0,N/A,N/A,N/A,N/A
101-000099,DXA BMD at Lumbar Spine (g/cm^2),BMDLS,MONTH 6,3,XXX001,Drug ABC,F,83,BLACK OR AFRICAN AMERICAN,Y,20.066,42.072,22.007,0.523,>3% change from baseline,Y,Y,Y,LUNAR,1992-11-13,1993-05-15,183,N/A,N/A,N/A,N/A
101-000099,DXA BMD at Lumbar Spine (g/cm^2),BMDLS,MONTH 12,4,XXX001,Drug ABC,F,83,BLACK OR AFRICAN AMERICAN,Y,11.785,42.072,30.287,0.720,>3% change from baseline,Y,Y,Y,LUNAR,1992-11-13,1993-11-13,365,N/A,N/A,N/A,N/A
101-000099,DXA BMD at Lumbar Spine (g/cm^2),BMDLS,MONTH 18,5,XXX001,Drug ABC,F,83,BLACK OR AFRICAN AMERICAN,Y,51.504,42.072,-9.431,-0.224,>3% change from baseline,Y,Y,Y,LUNAR,1992-11-13,1994-05-15,548,N/A,N/A,N/A,N/A
101-000099,DXA BMD at Lumbar Spine (g/cm^2),BMDLS,MONTH 24,6,XXX001,Drug ABC,F,83,BLACK OR AFRICAN AMERICAN,Y,49.230,42.072,-7.158,-0.170,>3% change from baseline,Y,Y,Y,LUNAR,1992-11-13,1994-11-13,730,N/A,N/A,N/A,N/A
101-000099,DXA BMD at Lumbar Spine (g/cm^2),BMDLS,MONTH 30,7,XXX001,Drug ABC,F,83,BLACK OR AFRICAN AMERICAN,Y,37.025,42.072,5.048,0.120,>3% change from baseline,Y,Y,Y,LUNAR,1992-11-13,1995-05-15,913,N/A,N/A,N/A,N/A
101-000099,DXA BMD at Lumbar Spine (g/cm^2),BMDLS,MONTH 36,8,XXX001,Drug ABC,F,83,BLACK OR AFRICAN AMERICAN,Y,52.687,42.072,-10.615,-0.252,>3% change from baseline,Y,Y,Y,LUNAR,1992-11-13,1995-11-13,1095,N/A,N/A,N/A,N/A
101-000100,DXA BMD at Lumbar Spine (g/cm^2),BMDLS,BASELINE,2,XXX001,Drug ABC,M,82,WHITE,Y,21.584,25.643,4.059,0.158,>3% change from baseline,Y,Y,Y,LUNAR,1992-11-22,1992-11-22,0,N/A,N/A,N/A,N/A
101-000100,DXA BMD at Lumbar Spine (g/cm^2),BMDLS,MONTH 6,3,XXX001,Drug ABC,M,82,WHITE,Y,30.496,25.643,-4.853,-0.189,>3% change from baseline,Y,Y,Y,LUNAR,1992-11-22,1993-05-24,183,N/A,N/A,N/A,N/A
101-000100,DXA BMD at Lumbar Spine (g/cm^2),BMDLS,MONTH 12,4,XXX001,Drug ABC,M,82,WHITE,Y,40.450,25.643,-14.807,-0.577,>3% change from baseline,Y,Y,Y,LUNAR,1992-11-22,1993-11-22,365,N/A,N/A,N/A,N/A
101-000100,DXA BMD at Lumbar Spine (g/cm^2),BMDLS,MONTH 18,5,XXX001,Drug ABC,M,82,WHITE,Y,25.168,25.643,0.475,0.019,,,Y,Y,LUNAR,1992-11-22,1994-05-24,548,N/A,N/A,N/A,N/A
101-000100,DXA BMD at Lumbar Spine (g/cm^2),BMDLS,MONTH 24,6,XXX001,Drug ABC,M,82,WHITE,Y,30.015,25.643,-4.372,-0.171,>3% change from baseline,Y,Y,Y,LUNAR,1992-11-22,1994-11-22,730,N/A,N/A,N/A,N/A
101-000100,DXA BMD at Lumbar Spine (g/cm^2),BMDLS,MONTH 30,7,XXX001,Drug ABC,M,82,WHITE,Y,20.422,25.643,5.221,0.204,>3% change from baseline,Y,Y,Y,LUNAR,1992-11-22,1995-05-24,913,N/A,N/A,N/A,N/A
101-000100,DXA BMD at Lumbar Spine (g/cm^2),BMDLS,MONTH 36,8,XXX001,Drug ABC,M,82,WHITE,Y,13.623,25.643,12.020,0.469,>3% change from baseline,Y,Y,Y,LUNAR,1992-11-22,1995-11-22,1095,N/A,N/A,N/A,N/A
101-000101,DXA BMD at Lumbar Spine (g/cm^2),BMDLS,BASELINE,2,XXX001,Drug ABC,M,44,BLACK OR AFRICAN AMERICAN,Y,24.523,55.608,31.085,0.559,>3% change from baseline,Y,Y,Y,HOLOGIC,1992-11-22,1992-11-22,0,N/A,N/A,N/A,N/A
101-000101,DXA BMD at Lumbar Spine (g/cm^2),BMDLS,MONTH 6,3,XXX001,Drug ABC,M,44,BLACK OR AFRICAN AMERICAN,Y,41.241,55.608,14.367,0.258,>3% change from baseline,Y,Y,Y,HOLOGIC,1992-11-22,1993-05-24,183,N/A,N/A,N/A,N/A
101-000101,DXA BMD at Lumbar Spine (g/cm^2),BMDLS,MONTH 12,4,XXX001,Drug ABC,M,44,BLACK OR AFRICAN AMERICAN,Y,29.429,55.608,26.178,0.471,>3% change from baseline,Y,Y,Y,HOLOGIC,1992-11-22,1993-11-22,365,N/A,N/A,N/A,N/A
101-000101,DXA BMD at Lumbar Spine (g/cm^2),BMDLS,MONTH 18,5,XXX001,Drug ABC,M,44,BLACK OR AFRICAN AMERICAN,Y,49.720,55.608,5.888,0.106,>3% change from baseline,Y,Y,Y,HOLOGIC,1992-11-22,1994-05-24,548,N/A,N/A,N/A,N/A
101-000101,DXA BMD at Lumbar Spine (g/cm^2),BMDLS,MONTH 24,6,XXX001,Drug ABC,M,44,BLACK OR AFRICAN AMERICAN,Y,23.632,55.608,31.976,0.575,>3% change from baseline,Y,Y,Y,HOLOGIC,1992-11-22,1994-11-22,730,N/A,N/A,N/A,N/A
101-000101,DXA BMD at Lumbar Spine (g/cm^2),BMDLS,MONTH 30,7,XXX001,Drug ABC,M,44,BLACK OR AFRICAN AMERICAN,Y,53.412,55.608,2.196,0.039,>3% change from baseline,Y,Y,Y,HOLOGIC,1992-11-22,1995-05-24,913,N/A,N/A,N/A,N/A
101-000101,DXA BMD at Lumbar Spine (g/cm^2),BMDLS,MONTH 36,8,XXX001,Drug ABC,M,44,BLACK OR AFRICAN AMERICAN,Y,53.999,55.608,1.609,0.029,,,Y,Y,HOLOGIC,1992-11-22,1995-11-22,1095,N/A,N/A,N/A,N/A
101-000102,DXA BMD at Lumbar Spine (g/cm^2),BMDLS,BASELINE,2,XXX001,Placebo,F,62,ASIAN,N,50.007,50.030,0.023,0.000,,,Y,Y,HOLOGIC,1992-10-21,1992-10-21,0,N/A,N/A,N/A,N/A
101-000102,DXA BMD at Lumbar Spine (g/cm^2),BMDLS,MONTH 6,3,XXX001,Placebo,F,62,ASIAN,N,35.043,50.030,14.987,0.300,>3% change from baseline,Y,Y,Y,HOLOGIC,1992-10-21,1993-04-22,183,N/A,N/A,N/A,N/A
101-000102,DXA BMD at Lumbar Spine (g/cm^2),BMDLS,MONTH 12,4,XXX001,Placebo,F,62,ASIAN,N,25.000,50.030,25.029,0.500,>3% change from baseline,Y,Y,Y,HOLOGIC,1992-10-21,1993-10-21,365,N/A,N/A,N/A,N/A
101-000102,DXA BMD at Lumbar Spine (g/cm^2),BMDLS,MONTH 18,5,XXX001,Placebo,F,62,ASIAN,N,41.452,50.030,8.578,0.171,>3% change from baseline,Y,Y,Y,HOLOGIC,1992-10-21,1994-04-22,548,N/A,N/A,N/A,N/A
101-000102,DXA BMD at Lumbar Spine (g/cm^2),BMDLS,MONTH 24,6,XXX001,Placebo,F,62,ASIAN,N,50.487,50.030,-0.457,-0.009,,,Y,Y,HOLOGIC,1992-10-21,1994-10-21,730,N/A,N/A,N/A,N/A
101-000102,DXA BMD at Lumbar Spine (g/cm^2),BMDLS,MONTH 30,7,XXX001,Placebo,F,62,ASIAN,N,53.315,50.030,-3.285,-0.066,>3% change from baseline,Y,Y,Y,HOLOGIC,1992-10-21,1995-04-22,913,N/A,N/A,N/A,N/A
101-000102,DXA BMD at Lumbar Spine (g/cm^2),BMDLS,MONTH 36,8,XXX001,Placebo,F,62,ASIAN,N,54.416,50.030,-4.386,-0.088,>3% change from baseline,Y,Y,Y,HOLOGIC,1992-10-21,1995-10-21,1095,N/A,N/A,N/A,N/A
101-000103,DXA BMD at Lumbar Spine (g/cm^2),BMDLS,BASELINE,2,XXX001,Placebo,M,69,BLACK OR AFRICAN AMERICAN,N,23.061,35.884,12.824,0.357,>3% change from baseline,Y,Y,Y,LUNAR,1992-12-07,1992-12-07,0,N/A,N/A,N/A,N/A
101-000103,DXA BMD at Lumbar Spine (g/cm^2),BMDLS,MONTH 6,3,XXX001,Placebo,M,69,BLACK OR AFRICAN AMERICAN,N,37.379,35.884,-1.495,-0.042,>3% change from baseline,Y,Y,Y,LUNAR,1992-12-07,1993-06-08,183,N/A,N/A,N/A,N/A
101-000103,DXA BMD at Lumbar Spine (g/cm^2),BMDLS,MONTH 12,4,XXX001,Placebo,M,69,BLACK OR AFRICAN AMERICAN,N,53.651,35.884,-17.767,-0.495,>3% change from baseline,Y,Y,Y,LUNAR,1992-12-07,1993-12-07,365,N/A,N/A,N/A,N/A
101-000103,DXA BMD at Lumbar Spine (g/cm^2),BMDLS,MONTH 18,5,XXX001,Placebo,M,69,BLACK OR AFRICAN AMERICAN,N,33.448,35.884,2.437,0.068,>3% change from baseline,Y,Y,Y,LUNAR,1992-12-07,1994-06-08,548,N/A,N/A,N/A,N/A
101-000103,DXA BMD at Lumbar Spine (g/cm^2),BMDLS,MONTH 24,6,XXX001,Placebo,M,69,BLACK OR AFRICAN AMERICAN,N,12.608,35.884,23.276,0.649,>3% change from baseline,Y,Y,Y,LUNAR,1992-12-07,1994-12-07,730,N/A,N/A,N/A,N/A
101-000103,DXA BMD at Lumbar Spine (g/cm^2),BMDLS,MONTH 30,7,XXX001,Placebo,M,69,BLACK OR AFRICAN AMERICAN,N,17.193,35.884,18.691,0.521,>3% change from baseline,Y,Y,Y,LUNAR,1992-12-07,1995-06-08,913,N/A,N/A,N/A,N/A
101-000103,DXA BMD at Lumbar Spine (g/cm^2),BMDLS,MONTH 36,8,XXX001,Placebo,M,69,BLACK OR AFRICAN AMERICAN,N,18.040,35.884,17.844,0.497,>3% change from baseline,Y,Y,Y,LUNAR,1992-12-07,1995-12-07,1095,N/A,N/A,N/A,N/A
101-000104,DXA BMD at Lumbar Spine (g/cm^2),BMDLS,BASELINE,2,XXX001,Drug ABC,M,61,WHITE,Y,27.240,18.686,-8.554,-0.458,>3% change from baseline,Y,Y,Y,LUNAR,1992-12-07,1992-12-07,0,N/A,N/A,N/A,N/A
101-000104,DXA BMD at Lumbar Spine (g/cm^2),BMDLS,MONTH 6,3,XXX001,Drug ABC,M,61,WHITE,Y,29.154,18.686,-10.468,-0.560,>3% change from baseline,Y,Y,Y,LUNAR,1992-12-07,1993-06-08,183,N/A,N/A,N/A,N/A
101-000104,DXA BMD at Lumbar Spine (g/cm^2),BMDLS,MONTH 12,4,XXX001,Drug ABC,M,61,WHITE,Y,25.712,18.686,-7.025,-0.376,>3% change from baseline,Y,Y,Y,LUNAR,1992-12-07,1993-12-07,365,N/A,N/A,N/A,N/A
101-000104,DXA BMD at Lumbar Spine (g/cm^2),BMDLS,MONTH 18,5,XXX001,Drug ABC,M,61,WHITE,Y,34.085,18.686,-15.398,-0.824,>3% change from baseline,Y,Y,Y,LUNAR,1992-12-07,1994-06-08,548,N/A,N/A,N/A,N/A
101-000104,DXA BMD at Lumbar Spine (g/cm^2),BMDLS,MONTH 24,6,XXX001,Drug ABC,M,61,WHITE,Y,25.041,18.686,-6.355,-0.340,>3% change from baseline,Y,Y,Y,LUNAR,1992-12-07,1994-12-07,730,N/A,N/A,N/A,N/A
101-000104,DXA BMD at Lumbar Spine (g/cm^2),BMDLS,MONTH 30,7,XXX001,Drug ABC,M,61,WHITE,Y,52.588,18.686,-33.902,-1.814,>3% change from baseline,Y,Y,Y,LUNAR,1992-12-07,1995-06-08,913,N/A,N/A,N/A,N/A
101-000104,DXA BMD at Lumbar Spine (g/cm^2),BMDLS,MONTH 36,8,XXX001,Drug ABC,M,61,WHITE,Y,21.569,18.686,-2.883,-0.154,>3% change from baseline,Y,Y,Y,LUNAR,1992-12-07,1995-12-07,1095,N/A,N/A,N/A,N/A
101-000105,DXA BMD at Lumbar Spine (g/cm^2),BMDLS,BASELINE,2,XXX001,Placebo,F,84,WHITE,N,22.153,40.733,18.580,0.456,>3% change from baseline,Y,Y,Y,LUNAR,1992-11-22,1992-11-22,0,N/A,N/A,N/A,N/A
101-000105,DXA BMD at Lumbar Spine (g/cm^2),BMDLS,MONTH 6,3,XXX001,Placebo,F,84,WHITE,N,14.109,40.733,26.623,0.654,>3% change from baseline,Y,Y,Y,LUNAR,1992-11-22,1993-05-24,183,N/A,N/A,N/A,N/A
101-000105,DXA BMD at Lumbar Spine (g/cm^2),BMDLS,MONTH 12,4,XXX001,Placebo,F,84,WHITE,N,21.943,40.733,18.789,0.461,>3% change from baseline,Y,Y,Y,LUNAR,1992-11-22,1993-11-22,365,N/A,N/A,N/A,N/A
101-000105,DXA BMD at Lumbar Spine (g/cm^2),BMDLS,MONTH 18,5,XXX001,Placebo,F,84,WHITE,N,17.564,40.733,23.168,0.569,>3% change from baseline,Y,Y,Y,LUNAR,1992-11-22,1994-05-24,548,N/A,N/A,N/A,N/A
101-000105,DXA BMD at Lumbar Spine (g/cm^2),BMDLS,MONTH 24,6,XXX001,Placebo,F,84,WHITE,N,27.256,40.733,13.477,0.331,>3% change from baseline,Y,Y,Y,LUNAR,1992-11-22,1994-11-22,730,N/A,N/A,N/A,N/A
101-000105,DXA BMD at Lumbar Spine (g/cm^2),BMDLS,MONTH 30,7,XXX001,Placebo,F,84,WHITE,N,50.264,40.733,-9.531,-0.234,>3% change from baseline,Y,Y,Y,LUNAR,1992-11-22,1995-05-24,913,N/A,N/A,N/A,N/A
101-000105,DXA BMD at Lumbar Spine (g/cm^2),BMDLS,MONTH 36,8,XXX001,Placebo,F,84,WHITE,N,29.741,40.733,10.992,0.270,>3% change from baseline,Y,Y,Y,LUNAR,1992-11-22,1995-11-22,1095,N/A,N/A,N/A,N/A
101-000106,DXA BMD at Lumbar Spine (g/cm^2),BMDLS,BASELINE,2,XXX001,Placebo,F,32,BLACK OR AFRICAN AMERICAN,N,46.423,25.375,-21.048,-0.829,>3% change from baseline,Y,Y,Y,HOLOGIC,1992-12-04,1992-12-04,0,N/A,N/A,N/A,N/A
101-000106,DXA BMD at Lumbar Spine (g/cm^2),BMDLS,MONTH 6,3,XXX001,Placebo,F,32,BLACK OR AFRICAN AMERICAN,N,14.086,25.375,11.289,0.445,>3% change from baseline,Y,Y,Y,HOLOGIC,1992-12-04,1993-06-05,183,N/A,N/A,N/A,N/A
101-000106,DXA BMD at Lumbar Spine (g/cm^2),BMDLS,MONTH 12,4,XXX001,Placebo,F,32,BLACK OR AFRICAN AMERICAN,N,29.913,25.375,-4.538,-0.179,>3% change from baseline,Y,Y,Y,HOLOGIC,1992-12-04,1993-12-04,365,N/A,N/A,N/A,N/A
101-000106,DXA BMD at Lumbar Spine (g/cm^2),BMDLS,MONTH 18,5,XXX001,Placebo,F,32,BLACK OR AFRICAN AMERICAN,N,33.721,25.375,-8.346,-0.329,>3% change from baseline,Y,Y,Y,HOLOGIC,1992-12-04,1994-06-05,548,N/A,N/A,N/A,N/A
101-000106,DXA BMD at Lumbar Spine (g/cm^2),BMDLS,MONTH 24,6,XXX001,Placebo,F,32,BLACK OR AFRICAN AMERICAN,N,39.122,25.375,-13.747,-0.542,>3% change from baseline,Y,Y,Y,HOLOGIC,1992-12-04,1994-12-04,730,N/A,N/A,N/A,N/A
101-000106,DXA BMD at Lumbar Spine (g/cm^2),BMDLS,MONTH 30,7,XXX001,Placebo,F,32,BLACK OR AFRICAN AMERICAN,N,50.122,25.375,-24.746,-0.975,>3% change from baseline,Y,Y,Y,HOLOGIC,1992-12-04,1995-06-05,913,N/A,N/A,N/A,N/A
101-000106,DXA BMD at Lumbar Spine (g/cm^2),BMDLS,MONTH 36,8,XXX001,Placebo,F,32,BLACK OR AFRICAN AMERICAN,N,53.755,25.375,-28.380,-1.118,>3% change from baseline,Y,Y,Y,HOLOGIC,1992-12-04,1995-12-04,1095,N/A,N/A,N/A,N/A
101-000107,DXA BMD at Lumbar Spine (g/cm^2),BMDLS,BASELINE,2,XXX001,Placebo,M,43,WHITE,N,45.157,52.061,6.903,0.133,>3% change from baseline,Y,Y,Y,HOLOGIC,1992-11-22,1992-11-22,0,N/A,N/A,N/A,N/A
101-000107,DXA BMD at Lumbar Spine (g/cm^2),BMDLS,MONTH 6,3,XXX001,Placebo,M,43,WHITE,N,56.276,52.061,-4.215,-0.081,>3% change from baseline,Y,Y,Y,HOLOGIC,1992-11-22,1993-05-24,183,N/A,N/A,N/A,N/A
101-000107,DXA BMD at Lumbar Spine (g/cm^2),BMDLS,MONTH 12,4,XXX001,Placebo,M,43,WHITE,N,54.499,52.061,-2.439,-0.047,>3% change from baseline,Y,Y,Y,HOLOGIC,1992-11-22,1993-11-22,365,N/A,N/A,N/A,N/A
101-000107,DXA BMD at Lumbar Spine (g/cm^2),BMDLS,MONTH 18,5,XXX001,Placebo,M,43,WHITE,N,16.243,52.061,35.817,0.688,>3% change from baseline,Y,Y,Y,HOLOGIC,1992-11-22,1994-05-24,548,N/A,N/A,N/A,N/A
101-000107,DXA BMD at Lumbar Spine (g/cm^2),BMDLS,MONTH 24,6,XXX001,Placebo,M,43,WHITE,N,21.919,52.061,30.142,0.579,>3% change from baseline,Y,Y,Y,HOLOGIC,1992-11-22,1994-11-22,730,N/A,N/A,N/A,N/A
101-000107,DXA BMD at Lumbar Spine (g/cm^2),BMDLS,MONTH 30,7,XXX001,Placebo,M,43,WHITE,N,48.943,52.061,3.118,0.060,>3% change from baseline,Y,Y,Y,HOLOGIC,1992-11-22,1995-05-24,913,N/A,N/A,N/A,N/A
101-000107,DXA BMD at Lumbar Spine (g/cm^2),BMDLS,MONTH 36,8,XXX001,Placebo,M,43,WHITE,N,40.684,52.061,11.377,0.219,>3% change from baseline,Y,Y,Y,HOLOGIC,1992-11-22,1995-11-22,1095,N/A,N/A,N/A,N/A
101-000108,DXA BMD at Lumbar Spine (g/cm^2),BMDLS,BASELINE,2,XXX001,Placebo,F,34,WHITE,N,33.919,35.463,1.544,0.044,>3% change from baseline,Y,Y,Y,LUNAR,1992-11-29,1992-11-29,0,N/A,N/A,N/A,N/A
101-000108,DXA BMD at Lumbar Spine (g/cm^2),BMDLS,MONTH 6,3,XXX001,Placebo,F,34,WHITE,N,55.093,35.463,-19.630,-0.554,>3% change from baseline,Y,Y,Y,LUNAR,1992-11-29,1993-05-31,183,N/A,N/A,N/A,N/A
101-000108,DXA BMD at Lumbar Spine (g/cm^2),BMDLS,MONTH 12,4,XXX001,Placebo,F,34,WHITE,N,26.737,35.463,8.726,0.246,>3% change from baseline,Y,Y,Y,LUNAR,1992-11-29,1993-11-29,365,N/A,N/A,N/A,N/A
101-000108,DXA BMD at Lumbar Spine (g/cm^2),BMDLS,MONTH 18,5,XXX001,Placebo,F,34,WHITE,N,24.294,35.463,11.170,0.315,>3% change from baseline,Y,Y,Y,LUNAR,1992-11-29,1994-05-31,548,N/A,N/A,N/A,N/A
101-000108,DXA BMD at Lumbar Spine (g/cm^2),BMDLS,MONTH 24,6,XXX001,Placebo,F,34,WHITE,N,31.609,35.463,3.854,0.109,>3% change from baseline,Y,Y,Y,LUNAR,1992-11-29,1994-11-29,730,N/A,N/A,N/A,N/A
101-000108,DXA BMD at Lumbar Spine (g/cm^2),BMDLS,MONTH 30,7,XXX001,Placebo,F,34,WHITE,N,28.873,35.463,6.590,0.186,>3% change from baseline,Y,Y,Y,LUNAR,1992-11-29,1995-05-31,913,N/A,N/A,N/A,N/A
101-000108,DXA BMD at Lumbar Spine (g/cm^2),BMDLS,MONTH 36,8,XXX001,Placebo,F,34,WHITE,N,53.663,35.463,-18.200,-0.513,>3% change from baseline,Y,Y,Y,LUNAR,1992-11-29,1995-11-29,1095,N/A,N/A,N/A,N/A
101-000109,DXA BMD at Lumbar Spine (g/cm^2),BMDLS,BASELINE,2,XXX001,Placebo,F,33,WHITE,N,36.288,56.427,20.139,0.357,>3% change from baseline,Y,Y,Y,LUNAR,1992-10-31,1992-10-31,0,N/A,N/A,N/A,N/A
101-000109,DXA BMD at Lumbar Spine (g/cm^2),BMDLS,MONTH 6,3,XXX001,Placebo,F,33,WHITE,N,53.932,56.427,2.495,0.044,>3% change from baseline,Y,Y,Y,LUNAR,1992-10-31,1993-05-02,183,N/A,N/A,N/A,N/A
101-000109,DXA BMD at Lumbar Spine (g/cm^2),BMDLS,MONTH 12,4,XXX001,Placebo,F,33,WHITE,N,30.981,56.427,25.446,0.451,>3% change from baseline,Y,Y,Y,LUNAR,1992-10-31,1993-10-31,365,N/A,N/A,N/A,N/A
101-000109,DXA BMD at Lumbar Spine (g/cm^2),BMDLS,MONTH 18,5,XXX001,Placebo,F,33,WHITE,N,25.363,56.427,31.064,0.551,>3% change from baseline,Y,Y,Y,LUNAR,1992-10-31,1994-05-02,548,N/A,N/A,N/A,N/A
101-000109,DXA BMD at Lumbar Spine (g/cm^2),BMDLS,MONTH 24,6,XXX001,Placebo,F,33,WHITE,N,45.936,56.427,10.492,0.186,>3% change from baseline,Y,Y,Y,LUNAR,1992-10-31,1994-10-31,730,N/A,N/A,N/A,N/A
101-000109,DXA BMD at Lumbar Spine (g/cm^2),BMDLS,MONTH 30,7,XXX001,Placebo,F,33,WHITE,N,46.234,56.427,10.193,0.181,>3% change from baseline,Y,Y,Y,LUNAR,1992-10-31,1995-05-02,913,N/A,N/A,N/A,N/A
101-000109,DXA BMD at Lumbar Spine (g/cm^2),BMDLS,MONTH 36,8,XXX001,Placebo,F,33,WHITE,N,51.682,56.427,4.745,0.084,>3% change from baseline,Y,Y,Y,LUNAR,1992-10-31,1995-10-31,1095,N/A,N/A,N/A,N/A
101-000110,DXA BMD at Lumbar Spine (g/cm^2),BMDLS,BASELINE,2,XXX001,Placebo,F,41,WHITE,N,49.830,13.464,-36.366,-2.701,>3% change from baseline,Y,Y,Y,LUNAR,1992-11-23,1992-11-23,0,N/A,N/A,N/A,N/A
101-000110,DXA BMD at Lumbar Spine (g/cm^2),BMDLS,MONTH 6,3,XXX001,Placebo,F,41,WHITE,N,17.665,13.464,-4.202,-0.312,>3% change from baseline,Y,Y,Y,LUNAR,1992-11-23,1993-05-25,183,N/A,N/A,N/A,N/A
101-000110,DXA BMD at Lumbar Spine (g/cm^2),BMDLS,MONTH 12,4,XXX001,Placebo,F,41,WHITE,N,53.856,13.464,-40.393,-3.000,>3% change from baseline,Y,Y,Y,LUNAR,1992-11-23,1993-11-23,365,N/A,N/A,N/A,N/A
101-000110,DXA BMD at Lumbar Spine (g/cm^2),BMDLS,MONTH 18,5,XXX001,Placebo,F,41,WHITE,N,27.582,13.464,-14.119,-1.049,>3% change from baseline,Y,Y,Y,LUNAR,1992-11-23,1994-05-25,548,N/A,N/A,N/A,N/A
101-000110,DXA BMD at Lumbar Spine (g/cm^2),BMDLS,MONTH 24,6,XXX001,Placebo,F,41,WHITE,N,36.508,13.464,-23.044,-1.712,>3% change from baseline,Y,Y,Y,LUNAR,1992-11-23,1994-11-23,730,N/A,N/A,N/A,N/A
101-000110,DXA BMD at Lumbar Spine (g/cm^2),BMDLS,MONTH 30,7,XXX001,Placebo,F,41,WHITE,N,23.000,13.464,-9.536,-0.708,>3% change from baseline,Y,Y,Y,LUNAR,1992-11-23,1995-05-25,913,N/A,N/A,N/A,N/A
101-000110,DXA BMD at Lumbar Spine (g/cm^2),BMDLS,MONTH 36,8,XXX001,Placebo,F,41,WHITE,N,50.623,13.464,-37.159,-2.760,>3% change from baseline,Y,Y,Y,LUNAR,1992-11-23,1995-11-23,1095,N/A,N/A,N/A,N/A
101-000111,DXA BMD at Lumbar Spine (g/cm^2),BMDLS,BASELINE,2,XXX001,Placebo,M,36,WHITE,N,43.481,12.754,-30.726,-2.409,>3% change from baseline,Y,Y,Y,LUNAR,1992-11-16,1992-11-16,0,N/A,N/A,N/A,N/A
101-000111,DXA BMD at Lumbar Spine (g/cm^2),BMDLS,MONTH 6,3,XXX001,Placebo,M,36,WHITE,N,40.722,12.754,-27.967,-2.193,>3% change from baseline,Y,Y,Y,LUNAR,1992-11-16,1993-05-18,183,N/A,N/A,N/A,N/A
101-000111,DXA BMD at Lumbar Spine (g/cm^2),BMDLS,MONTH 12,4,XXX001,Placebo,M,36,WHITE,N,32.457,12.754,-19.703,-1.545,>3% change from baseline,Y,Y,Y,LUNAR,1992-11-16,1993-11-16,365,N/A,N/A,N/A,N/A
101-000111,DXA BMD at Lumbar Spine (g/cm^2),BMDLS,MONTH 18,5,XXX001,Placebo,M,36,WHITE,N,32.723,12.754,-19.969,-1.566,>3% change from baseline,Y,Y,Y,LUNAR,1992-11-16,1994-05-18,548,N/A,N/A,N/A,N/A
101-000111,DXA BMD at Lumbar Spine (g/cm^2),BMDLS,MONTH 24,6,XXX001,Placebo,M,36,WHITE,N,46.963,12.754,-34.208,-2.682,>3% change from baseline,Y,Y,Y,LUNAR,1992-11-16,1994-11-16,730,N/A,N/A,N/A,N/A
101-000111,DXA BMD at Lumbar Spine (g/cm^2),BMDLS,MONTH 30,7,XXX001,Placebo,M,36,WHITE,N,12.422,12.754,0.332,0.026,,,Y,Y,LUNAR,1992-11-16,1995-05-18,913,N/A,N/A,N/A,N/A
101-000111,DXA BMD at Lumbar Spine (g/cm^2),BMDLS,MONTH 36,8,XXX001,Placebo,M,36,WHITE,N,32.120,12.754,-19.365,-1.518,>3% change from baseline,Y,Y,Y,LUNAR,1992-11-16,1995-11-16,1095,N/A,N/A,N/A,N/A
101-000112,DXA BMD at Lumbar Spine (g/cm^2),BMDLS,BASELINE,2,XXX001,Placebo,F,37,ASIAN,N,37.439,36.319,-1.119,-0.031,>3% change from baseline,Y,Y,Y,HOLOGIC,1992-12-08,1992-12-08,0,N/A,N/A,N/A,N/A
101-000112,DXA BMD at Lumbar Spine (g/cm^2),BMDLS,MONTH 6,3,XXX001,Placebo,F,37,ASIAN,N,49.817,36.319,-13.498,-0.372,>3% change from baseline,Y,Y,Y,HOLOGIC,1992-12-08,1993-06-09,183,N/A,N/A,N/A,N/A
101-000112,DXA BMD at Lumbar Spine (g/cm^2),BMDLS,MONTH 12,4,XXX001,Placebo,F,37,ASIAN,N,46.383,36.319,-10.064,-0.277,>3% change from baseline,Y,Y,Y,HOLOGIC,1992-12-08,1993-12-08,365,N/A,N/A,N/A,N/A
101-000112,DXA BMD at Lumbar Spine (g/cm^2),BMDLS,MONTH 18,5,XXX001,Placebo,F,37,ASIAN,N,54.097,36.319,-17.778,-0.489,>3% change from baseline,Y,Y,Y,HOLOGIC,1992-12-08,1994-06-09,548,N/A,N/A,N/A,N/A
101-000112,DXA BMD at Lumbar Spine (g/cm^2),BMDLS,MONTH 24,6,XXX001,Placebo,F,37,ASIAN,N,28.696,36.319,7.623,0.210,>3% change from baseline,Y,Y,Y,HOLOGIC,1992-12-08,1994-12-08,730,N/A,N/A,N/A,N/A
101-000112,DXA BMD at Lumbar Spine (g/cm^2),BMDLS,MONTH 30,7,XXX001,Placebo,F,37,ASIAN,N,42.929,36.319,-6.610,-0.182,>3% change from baseline,Y,Y,Y,HOLOGIC,1992-12-08,1995-06-09,913,N/A,N/A,N/A,N/A
101-000112,DXA BMD at Lumbar Spine (g/cm^2),BMDLS,MONTH 36,8,XXX001,Placebo,F,37,ASIAN,N,31.887,36.319,4.433,0.122,>3% change from baseline,Y,Y,Y,HOLOGIC,1992-12-08,1995-12-08,1095,N/A,N/A,N/A,N/A
101-000113,DXA BMD at Lumbar Spine (g/cm^2),BMDLS,BASELINE,2,XXX001,Placebo,F,76,AMERICAN INDIAN OR ALASKA NATIVE,N,25.723,36.477,10.754,0.295,>3% change from baseline,Y,Y,Y,HOLOGIC,1992-11-08,1992-11-08,0,N/A,N/A,N/A,N/A
101-000113,DXA BMD at Lumbar Spine (g/cm^2),BMDLS,MONTH 6,3,XXX001,Placebo,F,76,AMERICAN INDIAN OR ALASKA NATIVE,N,30.819,36.477,5.658,0.155,>3% change from baseline,Y,Y,Y,HOLOGIC,1992-11-08,1993-05-10,183,N/A,N/A,N/A,N/A
101-000113,DXA BMD at Lumbar Spine (g/cm^2),BMDLS,MONTH 12,4,XXX001,Placebo,F,76,AMERICAN INDIAN OR ALASKA NATIVE,N,18.901,36.477,17.576,0.482,>3% change from baseline,Y,Y,Y,HOLOGIC,1992-11-08,1993-11-08,365,N/A,N/A,N/A,N/A
101-000113,DXA BMD at Lumbar Spine (g/cm^2),BMDLS,MONTH 18,5,XXX001,Placebo,F,76,AMERICAN INDIAN OR ALASKA NATIVE,N,14.725,36.477,21.752,0.596,>3% change from baseline,Y,Y,Y,HOLOGIC,1992-11-08,1994-05-10,548,N/A,N/A,N/A,N/A
101-000113,DXA BMD at Lumbar Spine (g/cm^2),BMDLS,MONTH 24,6,XXX001,Placebo,F,76,AMERICAN INDIAN OR ALASKA NATIVE,N,11.547,36.477,24.929,0.683,>3% change from baseline,Y,Y,Y,HOLOGIC,1992-11-08,1994-11-08,730,N/A,N/A,N/A,N/A
101-000113,DXA BMD at Lumbar Spine (g/cm^2),BMDLS,MONTH 30,7,XXX001,Placebo,F,76,AMERICAN INDIAN OR ALASKA NATIVE,N,40.364,36.477,-3.888,-0.107,>3% change from baseline,Y,Y,Y,HOLOGIC,1992-11-08,1995-05-10,913,N/A,N/A,N/A,N/A
101-000113,DXA BMD at Lumbar Spine (g/cm^2),BMDLS,MONTH 36,8,XXX001,Placebo,F,76,AMERICAN INDIAN OR ALASKA NATIVE,N,32.471,36.477,4.006,0.110,>3% change from baseline,Y,Y,Y,HOLOGIC,1992-11-08,1995-11-08,1095,N/A,N/A,N/A,N/A
101-000114,DXA BMD at Lumbar Spine (g/cm^2),BMDLS,BASELINE,2,XXX001,Placebo,M,82,AMERICAN INDIAN OR ALASKA NATIVE,N,19.775,29.264,9.489,0.324,>3% change from baseline,Y,Y,Y,LUNAR,1992-10-31,1992-10-31,0,N/A,N/A,N/A,N/A
101-000114,DXA BMD at Lumbar Spine (g/cm^2),BMDLS,MONTH 6,3,XXX001,Placebo,M,82,AMERICAN INDIAN OR ALASKA NATIVE,N,21.787,29.264,7.477,0.255,>3% change from baseline,Y,Y,Y,LUNAR,1992-10-31,1993-05-02,183,N/A,N/A,N/A,N/A
101-000114,DXA BMD at Lumbar Spine (g/cm^2),BMDLS,MONTH 12,4,XXX001,Placebo,M,82,AMERICAN INDIAN OR ALASKA NATIVE,N,24.943,29.264,4.321,0.148,>3% change from baseline,Y,Y,Y,LUNAR,1992-10-31,1993-10-31,365,N/A,N/A,N/A,N/A
101-000114,DXA BMD at Lumbar Spine (g/cm^2),BMDLS,MONTH 18,5,XXX001,Placebo,M,82,AMERICAN INDIAN OR ALASKA NATIVE,N,49.626,29.264,-20.362,-0.696,>3% change from baseline,Y,Y,Y,LUNAR,1992-10-31,1994-05-02,548,N/A,N/A,N/A,N/A
101-000114,DXA BMD at Lumbar Spine (g/cm^2),BMDLS,MONTH 24,6,XXX001,Placebo,M,82,AMERICAN INDIAN OR ALASKA NATIVE,N,49.292,29.264,-20.028,-0.684,>3% change from baseline,Y,Y,Y,LUNAR,1992-10-31,1994-10-31,730,N/A,N/A,N/A,N/A
101-000114,DXA BMD at Lumbar Spine (g/cm^2),BMDLS,MONTH 30,7,XXX001,Placebo,M,82,AMERICAN INDIAN OR ALASKA NATIVE,N,16.935,29.264,12.329,0.421,>3% change from baseline,Y,Y,Y,LUNAR,1992-10-31,1995-05-02,913,N/A,N/A,N/A,N/A
101-000114,DXA BMD at Lumbar Spine (g/cm^2),BMDLS,MONTH 36,8,XXX001,Placebo,M,82,AMERICAN INDIAN OR ALASKA NATIVE,N,14.204,29.264,15.060,0.515,>3% change from baseline,Y,Y,Y,LUNAR,1992-10-31,1995-10-31,1095,N/A,N/A,N/A,N/A
101-000115,DXA BMD at Lumbar Spine (g/cm^2),BMDLS,BASELINE,2,XXX001,Placebo,M,88,NATIVE HAWAIIAN OR OTHER PACIFIC ISLANDER,N,45.400,25.423,-19.978,-0.786,>3% change from baseline,Y,Y,Y,LUNAR,1992-12-13,1992-12-13,0,N/A,N/A,N/A,N/A
101-000115,DXA BMD at Lumbar Spine (g/cm^2),BMDLS,MONTH 6,3,XXX001,Placebo,M,88,NATIVE HAWAIIAN OR OTHER PACIFIC ISLANDER,N,38.201,25.423,-12.778,-0.503,>3% change from baseline,Y,Y,Y,LUNAR,1992-12-13,1993-06-14,183,N/A,N/A,N/A,N/A
101-000115,DXA BMD at Lumbar Spine (g/cm^2),BMDLS,MONTH 12,4,XXX001,Placebo,M,88,NATIVE HAWAIIAN OR OTHER PACIFIC ISLANDER,N,29.350,25.423,-3.928,-0.154,>3% change from baseline,Y,Y,Y,LUNAR,1992-12-13,1993-12-13,365,N/A,N/A,N/A,N/A
101-000115,DXA BMD at Lumbar Spine (g/cm^2),BMDLS,MONTH 18,5,XXX001,Placebo,M,88,NATIVE HAWAIIAN OR OTHER PACIFIC ISLANDER,N,16.628,25.423,8.794,0.346,>3% change from baseline,Y,Y,Y,LUNAR,1992-12-13,1994-06-14,548,N/A,N/A,N/A,N/A
101-000115,DXA BMD at Lumbar Spine (g/cm^2),BMDLS,MONTH 24,6,XXX001,Placebo,M,88,NATIVE HAWAIIAN OR OTHER PACIFIC ISLANDER,N,11.849,25.423,13.574,0.534,>3% change from baseline,Y,Y,Y,LUNAR,1992-12-13,1994-12-13,730,N/A,N/A,N/A,N/A
101-000115,DXA BMD at Lumbar Spine (g/cm^2),BMDLS,MONTH 30,7,XXX001,Placebo,M,88,NATIVE HAWAIIAN OR OTHER PACIFIC ISLANDER,N,25.862,25.423,-0.439,-0.017,,,Y,Y,LUNAR,1992-12-13,1995-06-14,913,N/A,N/A,N/A,N/A
101-000115,DXA BMD at Lumbar Spine (g/cm^2),BMDLS,MONTH 36,8,XXX001,Placebo,M,88,NATIVE HAWAIIAN OR OTHER PACIFIC ISLANDER,N,34.337,25.423,-8.914,-0.351,>3% change from baseline,Y,Y,Y,LUNAR,1992-12-13,1995-12-13,1095,N/A,N/A,N/A,N/A
101-000116,DXA BMD at Lumbar Spine (g/cm^2),BMDLS,BASELINE,2,XXX001,Drug ABC,M,46,WHITE,Y,47.246,56.390,9.145,0.162,>3% change from baseline,Y,Y,Y,HOLOGIC,1992-12-14,1992-12-14,0,N/A,N/A,N/A,N/A
101-000116,DXA BMD at Lumbar Spine (g/cm^2),BMDLS,MONTH 6,3,XXX001,Drug ABC,M,46,WHITE,Y,22.819,56.390,33.571,0.595,>3% change from baseline,Y,Y,Y,HOLOGIC,1992-12-14,1993-06-15,183,N/A,N/A,N/A,N/A
101-000116,DXA BMD at Lumbar Spine (g/cm^2),BMDLS,MONTH 12,4,XXX001,Drug ABC,M,46,WHITE,Y,20.623,56.390,35.768,0.634,>3% change from baseline,Y,Y,Y,HOLOGIC,1992-12-14,1993-12-14,365,N/A,N/A,N/A,N/A
101-000116,DXA BMD at Lumbar Spine (g/cm^2),BMDLS,MONTH 18,5,XXX001,Drug ABC,M,46,WHITE,Y,27.142,56.390,29.249,0.519,>3% change from baseline,Y,Y,Y,HOLOGIC,1992-12-14,1994-06-15,548,N/A,N/A,N/A,N/A
101-000116,DXA BMD at Lumbar Spine (g/cm^2),BMDLS,MONTH 24,6,XXX001,Drug ABC,M,46,WHITE,Y,52.252,56.390,4.138,0.073,>3% change from baseline,Y,Y,Y,HOLOGIC,1992-12-14,1994-12-14,730,N/A,N/A,N/A,N/A
101-000116,DXA BMD at Lumbar Spine (g/cm^2),BMDLS,MONTH 30,7,XXX001,Drug ABC,M,46,WHITE,Y,33.970,56.390,22.420,0.398,>3% change from baseline,Y,Y,Y,HOLOGIC,1992-12-14,1995-06-15,913,N/A,N/A,N/A,N/A
101-000116,DXA BMD at Lumbar Spine (g/cm^2),BMDLS,MONTH 36,8,XXX001,Drug ABC,M,46,WHITE,Y,31.557,56.390,24.833,0.440,>3% change from baseline,Y,Y,Y,HOLOGIC,1992-12-14,1995-12-14,1095,N/A,N/A,N/A,N/A
101-000117,DXA BMD at Lumbar Spine (g/cm^2),BMDLS,BASELINE,2,XXX001,Placebo,M,57,AMERICAN INDIAN OR ALASKA NATIVE,N,14.793,14.290,-0.503,-0.035,>3% change from baseline,Y,Y,Y,LUNAR,1992-11-22,1992-11-22,0,N/A,N/A,N/A,N/A
101-000117,DXA BMD at Lumbar Spine (g/cm^2),BMDLS,MONTH 6,3,XXX001,Placebo,M,57,AMERICAN INDIAN OR ALASKA NATIVE,N,53.676,14.290,-39.386,-2.756,>3% change from baseline,Y,Y,Y,LUNAR,1992-11-22,1993-05-24,183,N/A,N/A,N/A,N/A
101-000117,DXA BMD at Lumbar Spine (g/cm^2),BMDLS,MONTH 12,4,XXX001,Placebo,M,57,AMERICAN INDIAN OR ALASKA NATIVE,N,26.839,14.290,-12.549,-0.878,>3% change from baseline,Y,Y,Y,LUNAR,1992-11-22,1993-11-22,365,N/A,N/A,N/A,N/A
101-000117,DXA BMD at Lumbar Spine (g/cm^2),BMDLS,MONTH 18,5,XXX001,Placebo,M,57,AMERICAN INDIAN OR ALASKA NATIVE,N,44.285,14.290,-29.995,-2.099,>3% change from baseline,Y,Y,Y,LUNAR,1992-11-22,1994-05-24,548,N/A,N/A,N/A,N/A
101-000117,DXA BMD at Lumbar Spine (g/cm^2),BMDLS,MONTH 24,6,XXX001,Placebo,M,57,AMERICAN INDIAN OR ALASKA NATIVE,N,24.067,14.290,-9.777,-0.684,>3% change from baseline,Y,Y,Y,LUNAR,1992-11-22,1994-11-22,730,N/A,N/A,N/A,N/A
101-000117,DXA BMD at Lumbar Spine (g/cm^2),BMDLS,MONTH 30,7,XXX001,Placebo,M,57,AMERICAN INDIAN OR ALASKA NATIVE,N,47.648,14.290,-33.358,-2.334,>3% change from baseline,Y,Y,Y,LUNAR,1992-11-22,1995-05-24,913,N/A,N/A,N/A,N/A
101-000117,DXA BMD at Lumbar Spine (g/cm^2),BMDLS,MONTH 36,8,XXX001,Placebo,M,57,AMERICAN INDIAN OR ALASKA NATIVE,N,35.366,14.290,-21.075,-1.475,>3% change from baseline,Y,Y,Y,LUNAR,1992-11-22,1995-11-22,1095,N/A,N/A,N/A,N/A
101-000118,DXA BMD at Lumbar Spine (g/cm^2),BMDLS,BASELINE,2,XXX001,Drug ABC,M,84,ASIAN,Y,54.266,52.639,-1.627,-0.031,>3% change from baseline,Y,Y,Y,LUNAR,1992-10-29,1992-10-29,0,N/A,N/A,N/A,N/A
101-000118,DXA BMD at Lumbar Spine (g/cm^2),BMDLS,MONTH 6,3,XXX001,Drug ABC,M,84,ASIAN,Y,53.881,52.639,-1.242,-0.024,,,Y,Y,LUNAR,1992-10-29,1993-04-30,183,N/A,N/A,N/A,N/A
101-000118,DXA BMD at Lumbar Spine (g/cm^2),BMDLS,MONTH 12,4,XXX001,Drug ABC,M,84,ASIAN,Y,24.153,52.639,28.486,0.541,>3% change from baseline,Y,Y,Y,LUNAR,1992-10-29,1993-10-29,365,N/A,N/A,N/A,N/A
101-000118,DXA BMD at Lumbar Spine (g/cm^2),BMDLS,MONTH 18,5,XXX001,Drug ABC,M,84,ASIAN,Y,33.148,52.639,19.491,0.370,>3% change from baseline,Y,Y,Y,LUNAR,1992-10-29,1994-04-30,548,N/A,N/A,N/A,N/A
101-000118,DXA BMD at Lumbar Spine (g/cm^2),BMDLS,MONTH 24,6,XXX001,Drug ABC,M,84,ASIAN,Y,33.736,52.639,18.903,0.359,>3% change from baseline,Y,Y,Y,LUNAR,1992-10-29,1994-10-29,730,N/A,N/A,N/A,N/A
101-000118,DXA BMD at Lumbar Spine (g/cm^2),BMDLS,MONTH 30,7,XXX001,Drug ABC,M,84,ASIAN,Y,30.815,52.639,21.824,0.415,>3% change from baseline,Y,Y,Y,LUNAR,1992-10-29,1995-04-30,913,N/A,N/A,N/A,N/A
101-000118,DXA BMD at Lumbar Spine (g/cm^2),BMDLS,MONTH 36,8,XXX001,Drug ABC,M,84,ASIAN,Y,26.596,52.639,26.043,0.495,>3% change from baseline,Y,Y,Y,LUNAR,1992-10-29,1995-10-29,1095,N/A,N/A,N/A,N/A
101-000119,DXA BMD at Lumbar Spine (g/cm^2),BMDLS,BASELINE,2,XXX001,Drug ABC,F,58,WHITE,Y,14.566,28.204,13.638,0.484,>3% change from baseline,Y,Y,Y,HOLOGIC,1992-10-30,1992-10-30,0,N/A,N/A,N/A,N/A
101-000119,DXA BMD at Lumbar Spine (g/cm^2),BMDLS,MONTH 6,3,XXX001,Drug ABC,F,58,WHITE,Y,17.225,28.204,10.978,0.389,>3% change from baseline,Y,Y,Y,HOLOGIC,1992-10-30,1993-05-01,183,N/A,N/A,N/A,N/A
101-000119,DXA BMD at Lumbar Spine (g/cm^2),BMDLS,MONTH 12,4,XXX001,Drug ABC,F,58,WHITE,Y,49.260,28.204,-21.056,-0.747,>3% change from baseline,Y,Y,Y,HOLOGIC,1992-10-30,1993-10-30,365,N/A,N/A,N/A,N/A
101-000119,DXA BMD at Lumbar Spine (g/cm^2),BMDLS,MONTH 18,5,XXX001,Drug ABC,F,58,WHITE,Y,47.671,28.204,-19.467,-0.690,>3% change from baseline,Y,Y,Y,HOLOGIC,1992-10-30,1994-05-01,548,N/A,N/A,N/A,N/A
101-000119,DXA BMD at Lumbar Spine (g/cm^2),BMDLS,MONTH 24,6,XXX001,Drug ABC,F,58,WHITE,Y,31.338,28.204,-3.135,-0.111,>3% change from baseline,Y,Y,Y,HOLOGIC,1992-10-30,1994-10-30,730,N/A,N/A,N/A,N/A
101-000119,DXA BMD at Lumbar Spine (g/cm^2),BMDLS,MONTH 30,7,XXX001,Drug ABC,F,58,WHITE,Y,47.949,28.204,-19.745,-0.700,>3% change from baseline,Y,Y,Y,HOLOGIC,1992-10-30,1995-05-01,913,N/A,N/A,N/A,N/A
101-000119,DXA BMD at Lumbar Spine (g/cm^2),BMDLS,MONTH 36,8,XXX001,Drug ABC,F,58,WHITE,Y,50.671,28.204,-22.468,-0.797,>3% change from baseline,Y,Y,Y,HOLOGIC,1992-10-30,1995-10-30,1095,N/A,N/A,N/A,N/A
101-000120,DXA BMD at Lumbar Spine (g/cm^2),BMDLS,BASELINE,2,XXX001,Drug ABC,F,54,WHITE,Y,48.861,24.388,-24.473,-1.003,>3% change from baseline,Y,Y,Y,LUNAR,1992-10-22,1992-10-22,0,N/A,N/A,N/A,N/A
101-000120,DXA BMD at Lumbar Spine (g/cm^2),BMDLS,MONTH 6,3,XXX001,Drug ABC,F,54,WHITE,Y,30.187,24.388,-5.798,-0.238,>3% change from baseline,Y,Y,Y,LUNAR,1992-10-22,1993-04-23,183,N/A,N/A,N/A,N/A
101-000120,DXA BMD at Lumbar Spine (g/cm^2),BMDLS,MONTH 12,4,XXX001,Drug ABC,F,54,WHITE,Y,52.698,24.388,-28.310,-1.161,>3% change from baseline,Y,Y,Y,LUNAR,1992-10-22,1993-10-22,365,N/A,N/A,N/A,N/A
101-000120,DXA BMD at Lumbar Spine (g/cm^2),BMDLS,MONTH 18,5,XXX001,Drug ABC,F,54,WHITE,Y,11.325,24.388,13.063,0.536,>3% change from baseline,Y,Y,Y,LUNAR,1992-10-22,1994-04-23,548,N/A,N/A,N/A,N/A
101-000120,DXA BMD at Lumbar Spine (g/cm^2),BMDLS,MONTH 24,6,XXX001,Drug ABC,F,54,WHITE,Y,25.166,24.388,-0.777,-0.032,>3% change from baseline,Y,Y,Y,LUNAR,1992-10-22,1994-10-22,730,N/A,N/A,N/A,N/A
101-000120,DXA BMD at Lumbar Spine (g/cm^2),BMDLS,MONTH 30,7,XXX001,Drug ABC,F,54,WHITE,Y,44.522,24.388,-20.134,-0.826,>3% change from baseline,Y,Y,Y,LUNAR,1992-10-22,1995-04-23,913,N/A,N/A,N/A,N/A
101-000120,DXA BMD at Lumbar Spine (g/cm^2),BMDLS,MONTH 36,8,XXX001,Drug ABC,F,54,WHITE,Y,47.101,24.388,-22.713,-0.931,>3% change from baseline,Y,Y,Y,LUNAR,1992-10-22,1995-10-22,1095,N/A,N/A,N/A,N/A
101-000121,DXA BMD at Lumbar Spine (g/cm^2),BMDLS,BASELINE,2,XXX001,Placebo,F,61,WHITE,N,55.850,11.573,-44.277,-3.826,>3% change from baseline,Y,Y,Y,LUNAR,1992-10-28,1992-10-28,0,N/A,N/A,N/A,N/A
101-000121,DXA BMD at Lumbar Spine (g/cm^2),BMDLS,MONTH 6,3,XXX001,Placebo,F,61,WHITE,N,48.792,11.573,-37.219,-3.216,>3% change from baseline,Y,Y,Y,LUNAR,1992-10-28,1993-04-29,183,N/A,N/A,N/A,N/A
101-000121,DXA BMD at Lumbar Spine (g/cm^2),BMDLS,MONTH 12,4,XXX001,Placebo,F,61,WHITE,N,21.971,11.573,-10.398,-0.898,>3% change from baseline,Y,Y,Y,LUNAR,1992-10-28,1993-10-28,365,N/A,N/A,N/A,N/A
101-000121,DXA BMD at Lumbar Spine (g/cm^2),BMDLS,MONTH 18,5,XXX001,Placebo,F,61,WHITE,N,21.092,11.573,-9.519,-0.823,>3% change from baseline,Y,Y,Y,LUNAR,1992-10-28,1994-04-29,548,N/A,N/A,N/A,N/A
101-000121,DXA BMD at Lumbar Spine (g/cm^2),BMDLS,MONTH 24,6,XXX001,Placebo,F,61,WHITE,N,20.928,11.573,-9.355,-0.808,>3% change from baseline,Y,Y,Y,LUNAR,1992-10-28,1994-10-28,730,N/A,N/A,N/A,N/A
101-000121,DXA BMD at Lumbar Spine (g/cm^2),BMDLS,MONTH 30,7,XXX001,Placebo,F,61,WHITE,N,47.312,11.573,-35.739,-3.088,>3% change from baseline,Y,Y,Y,LUNAR,1992-10-28,1995-04-29,913,N/A,N/A,N/A,N/A
101-000121,DXA BMD at Lumbar Spine (g/cm^2),BMDLS,MONTH 36,8,XXX001,Placebo,F,61,WHITE,N,27.945,11.573,-16.372,-1.415,>3% change from baseline,Y,Y,Y,LUNAR,1992-10-28,1995-10-28,1095,N/A,N/A,N/A,N/A
101-000122,DXA BMD at Lumbar Spine (g/cm^2),BMDLS,BASELINE,2,XXX001,Placebo,M,46,WHITE,N,25.595,30.391,4.796,0.158,>3% change from baseline,Y,Y,Y,LUNAR,1992-12-09,1992-12-09,0,N/A,N/A,N/A,N/A
101-000122,DXA BMD at Lumbar Spine (g/cm^2),BMDLS,MONTH 6,3,XXX001,Placebo,M,46,WHITE,N,51.772,30.391,-21.381,-0.704,>3% change from baseline,Y,Y,Y,LUNAR,1992-12-09,1993-06-10,183,N/A,N/A,N/A,N/A
101-000122,DXA BMD at Lumbar Spine (g/cm^2),BMDLS,MONTH 12,4,XXX001,Placebo,M,46,WHITE,N,21.343,30.391,9.049,0.298,>3% change from baseline,Y,Y,Y,LUNAR,1992-12-09,1993-12-09,365,N/A,N/A,N/A,N/A
101-000122,DXA BMD at Lumbar Spine (g/cm^2),BMDLS,MONTH 18,5,XXX001,Placebo,M,46,WHITE,N,42.116,30.391,-11.725,-0.386,>3% change from baseline,Y,Y,Y,LUNAR,1992-12-09,1994-06-10,548,N/A,N/A,N/A,N/A
101-000122,DXA BMD at Lumbar Spine (g/cm^2),BMDLS,MONTH 24,6,XXX001,Placebo,M,46,WHITE,N,22.501,30.391,7.890,0.260,>3% change from baseline,Y,Y,Y,LUNAR,1992-12-09,1994-12-09,730,N/A,N/A,N/A,N/A
101-000122,DXA BMD at Lumbar Spine (g/cm^2),BMDLS,MONTH 30,7,XXX001,Placebo,M,46,WHITE,N,54.335,30.391,-23.943,-0.788,>3% change from baseline,Y,Y,Y,LUNAR,1992-12-09,1995-06-10,913,N/A,N/A,N/A,N/A
101-000122,DXA BMD at Lumbar Spine (g/cm^2),BMDLS,MONTH 36,8,XXX001,Placebo,M,46,WHITE,N,50.133,30.391,-19.742,-0.650,>3% change from baseline,Y,Y,Y,LUNAR,1992-12-09,1995-12-09,1095,N/A,N/A,N/A,N/A
101-000123,DXA BMD at Lumbar Spine (g/cm^2),BMDLS,BASELINE,2,XXX001,Placebo,M,41,WHITE,N,29.475,33.838,4.363,0.129,>3% change from baseline,Y,Y,Y,LUNAR,1992-12-05,1992-12-05,0,N/A,N/A,N/A,N/A
101-000123,DXA BMD at Lumbar Spine (g/cm^2),BMDLS,MONTH 6,3,XXX001,Placebo,M,41,WHITE,N,41.241,33.838,-7.404,-0.219,>3% change from baseline,Y,Y,Y,LUNAR,1992-12-05,1993-06-06,183,N/A,N/A,N/A,N/A
101-000123,DXA BMD at Lumbar Spine (g/cm^2),BMDLS,MONTH 12,4,XXX001,Placebo,M,41,WHITE,N,56.417,33.838,-22.580,-0.667,>3% change from baseline,Y,Y,Y,LUNAR,1992-12-05,1993-12-05,365,N/A,N/A,N/A,N/A
101-000123,DXA BMD at Lumbar Spine (g/cm^2),BMDLS,MONTH 18,5,XXX001,Placebo,M,41,WHITE,N,24.040,33.838,9.798,0.290,>3% change from baseline,Y,Y,Y,LUNAR,1992-12-05,1994-06-06,548,N/A,N/A,N/A,N/A
101-000123,DXA BMD at Lumbar Spine (g/cm^2),BMDLS,MONTH 24,6,XXX001,Placebo,M,41,WHITE,N,50.482,33.838,-16.644,-0.492,>3% change from baseline,Y,Y,Y,LUNAR,1992-12-05,1994-12-05,730,N/A,N/A,N/A,N/A
101-000123,DXA BMD at Lumbar Spine (g/cm^2),BMDLS,MONTH 30,7,XXX001,Placebo,M,41,WHITE,N,20.814,33.838,13.023,0.385,>3% change from baseline,Y,Y,Y,LUNAR,1992-12-05,1995-06-06,913,N/A,N/A,N/A,N/A
101-000123,DXA BMD at Lumbar Spine (g/cm^2),BMDLS,MONTH 36,8,XXX001,Placebo,M,41,WHITE,N,55.943,33.838,-22.105,-0.653,>3% change from baseline,Y,Y,Y,LUNAR,1992-12-05,1995-12-05,1095,N/A,N/A,N/A,N/A
101-000124,DXA BMD at Lumbar Spine (g/cm^2),BMDLS,BASELINE,2,XXX001,Placebo,F,24,WHITE,N,30.101,18.509,-11.592,-0.626,>3% change from baseline,Y,Y,Y,LUNAR,1992-11-15,1992-11-15,0,N/A,N/A,N/A,N/A
101-000124,DXA BMD at Lumbar Spine (g/cm^2),BMDLS,MONTH 6,3,XXX001,Placebo,F,24,WHITE,N,39.075,18.509,-20.566,-1.111,>3% change from baseline,Y,Y,Y,LUNAR,1992-11-15,1993-05-17,183,N/A,N/A,N/A,N/A
101-000124,DXA BMD at Lumbar Spine (g/cm^2),BMDLS,MONTH 12,4,XXX001,Placebo,F,24,WHITE,N,49.402,18.509,-30.893,-1.669,>3% change from baseline,Y,Y,Y,LUNAR,1992-11-15,1993-11-15,365,N/A,N/A,N/A,N/A
101-000124,DXA BMD at Lumbar Spine (g/cm^2),BMDLS,MONTH 18,5,XXX001,Placebo,F,24,WHITE,N,17.007,18.509,1.502,0.081,>3% change from baseline,Y,Y,Y,LUNAR,1992-11-15,1994-05-17,548,N/A,N/A,N/A,N/A
101-000124,DXA BMD at Lumbar Spine (g/cm^2),BMDLS,MONTH 24,6,XXX001,Placebo,F,24,WHITE,N,35.680,18.509,-17.171,-0.928,>3% change from baseline,Y,Y,Y,LUNAR,1992-11-15,1994-11-15,730,N/A,N/A,N/A,N/A
101-000124,DXA BMD at Lumbar Spine (g/cm^2),BMDLS,MONTH 30,7,XXX001,Placebo,F,24,WHITE,N,50.916,18.509,-32.407,-1.751,>3% change from baseline,Y,Y,Y,LUNAR,1992-11-15,1995-05-17,913,N/A,N/A,N/A,N/A
101-000124,DXA BMD at Lumbar Spine (g/cm^2),BMDLS,MONTH 36,8,XXX001,Placebo,F,24,WHITE,N,54.480,18.509,-35.970,-1.943,>3% change from baseline,Y,Y,Y,LUNAR,1992-11-15,1995-11-15,1095,N/A,N/A,N/A,N/A
101-000125,DXA BMD at Lumbar Spine (g/cm^2),BMDLS,BASELINE,2,XXX001,Drug ABC,M,30,WHITE,Y,14.831,38.418,23.587,0.614,>3% change from baseline,Y,Y,Y,LUNAR,1992-10-26,1992-10-26,0,N/A,N/A,N/A,N/A
101-000125,DXA BMD at Lumbar Spine (g/cm^2),BMDLS,MONTH 6,3,XXX001,Drug ABC,M,30,WHITE,Y,35.411,38.418,3.007,0.078,>3% change from baseline,Y,Y,Y,LUNAR,1992-10-26,1993-04-27,183,N/A,N/A,N/A,N/A
101-000125,DXA BMD at Lumbar Spine (g/cm^2),BMDLS,MONTH 12,4,XXX001,Drug ABC,M,30,WHITE,Y,30.917,38.418,7.501,0.195,>3% change from baseline,Y,Y,Y,LUNAR,1992-10-26,1993-10-26,365,N/A,N/A,N/A,N/A
101-000125,DXA BMD at Lumbar Spine (g/cm^2),BMDLS,MONTH 18,5,XXX001,Drug ABC,M,30,WHITE,Y,38.837,38.418,-0.419,-0.011,,,Y,Y,LUNAR,1992-10-26,1994-04-27,548,N/A,N/A,N/A,N/A
101-000125,DXA BMD at Lumbar Spine (g/cm^2),BMDLS,MONTH 24,6,XXX001,Drug ABC,M,30,WHITE,Y,34.696,38.418,3.722,0.097,>3% change from baseline,Y,Y,Y,LUNAR,1992-10-26,1994-10-26,730,N/A,N/A,N/A,N/A
101-000125,DXA BMD at Lumbar Spine (g/cm^2),BMDLS,MONTH 30,7,XXX001,Drug ABC,M,30,WHITE,Y,26.402,38.418,12.016,0.313,>3% change from baseline,Y,Y,Y,LUNAR,1992-10-26,1995-04-27,913,N/A,N/A,N/A,N/A
101-000125,DXA BMD at Lumbar Spine (g/cm^2),BMDLS,MONTH 36,8,XXX001,Drug ABC,M,30,WHITE,Y,38.168,38.418,0.250,0.006,,,Y,Y,LUNAR,1992-10-26,1995-10-26,1095,N/A,N/A,N/A,N/A
101-000126,DXA BMD at Lumbar Spine (g/cm^2),BMDLS,BASELINE,2,XXX001,Placebo,F,33,AMERICAN INDIAN OR ALASKA NATIVE,N,23.307,16.772,-6.535,-0.390,>3% change from baseline,Y,Y,Y,HOLOGIC,1992-10-21,1992-10-21,0,N/A,N/A,N/A,N/A
101-000126,DXA BMD at Lumbar Spine (g/cm^2),BMDLS,MONTH 6,3,XXX001,Placebo,F,33,AMERICAN INDIAN OR ALASKA NATIVE,N,37.213,16.772,-20.441,-1.219,>3% change from baseline,Y,Y,Y,HOLOGIC,1992-10-21,1993-04-22,183,N/A,N/A,N/A,N/A
101-000126,DXA BMD at Lumbar Spine (g/cm^2),BMDLS,MONTH 12,4,XXX001,Placebo,F,33,AMERICAN INDIAN OR ALASKA NATIVE,N,33.748,16.772,-16.977,-1.012,>3% change from baseline,Y,Y,Y,HOLOGIC,1992-10-21,1993-10-21,365,N/A,N/A,N/A,N/A
101-000126,DXA BMD at Lumbar Spine (g/cm^2),BMDLS,MONTH 18,5,XXX001,Placebo,F,33,AMERICAN INDIAN OR ALASKA NATIVE,N,28.159,16.772,-11.388,-0.679,>3% change from baseline,Y,Y,Y,HOLOGIC,1992-10-21,1994-04-22,548,N/A,N/A,N/A,N/A
101-000126,DXA BMD at Lumbar Spine (g/cm^2),BMDLS,MONTH 24,6,XXX001,Placebo,F,33,AMERICAN INDIAN OR ALASKA NATIVE,N,43.918,16.772,-27.147,-1.619,>3% change from baseline,Y,Y,Y,HOLOGIC,1992-10-21,1994-10-21,730,N/A,N/A,N/A,N/A
101-000126,DXA BMD at Lumbar Spine (g/cm^2),BMDLS,MONTH 30,7,XXX001,Placebo,F,33,AMERICAN INDIAN OR ALASKA NATIVE,N,48.138,16.772,-31.367,-1.870,>3% change from baseline,Y,Y,Y,HOLOGIC,1992-10-21,1995-04-22,913,N/A,N/A,N/A,N/A
101-000126,DXA BMD at Lumbar Spine (g/cm^2),BMDLS,MONTH 36,8,XXX001,Placebo,F,33,AMERICAN INDIAN OR ALASKA NATIVE,N,43.459,16.772,-26.688,-1.591,>3% change from baseline,Y,Y,Y,HOLOGIC,1992-10-21,1995-10-21,1095,N/A,N/A,N/A,N/A
101-000127,DXA BMD at Lumbar Spine (g/cm^2),BMDLS,BASELINE,2,XXX001,Drug ABC,F,73,BLACK OR AFRICAN AMERICAN,Y,21.700,34.792,13.092,0.376,>3% change from baseline,Y,Y,Y,LUNAR,1992-11-01,1992-11-01,0,N/A,N/A,N/A,N/A
101-000127,DXA BMD at Lumbar Spine (g/cm^2),BMDLS,MONTH 6,3,XXX001,Drug ABC,F,73,BLACK OR AFRICAN AMERICAN,Y,38.229,34.792,-3.438,-0.099,>3% change from baseline,Y,Y,Y,LUNAR,1992-11-01,1993-05-03,183,N/A,N/A,N/A,N/A
101-000127,DXA BMD at Lumbar Spine (g/cm^2),BMDLS,MONTH 12,4,XXX001,Drug ABC,F,73,BLACK OR AFRICAN AMERICAN,Y,34.176,34.792,0.616,0.018,,,Y,Y,LUNAR,1992-11-01,1993-11-01,365,N/A,N/A,N/A,N/A
101-000127,DXA BMD at Lumbar Spine (g/cm^2),BMDLS,MONTH 18,5,XXX001,Drug ABC,F,73,BLACK OR AFRICAN AMERICAN,Y,11.496,34.792,23.296,0.670,>3% change from baseline,Y,Y,Y,LUNAR,1992-11-01,1994-05-03,548,N/A,N/A,N/A,N/A
101-000127,DXA BMD at Lumbar Spine (g/cm^2),BMDLS,MONTH 24,6,XXX001,Drug ABC,F,73,BLACK OR AFRICAN AMERICAN,Y,18.899,34.792,15.893,0.457,>3% change from baseline,Y,Y,Y,LUNAR,1992-11-01,1994-11-01,730,N/A,N/A,N/A,N/A
101-000127,DXA BMD at Lumbar Spine (g/cm^2),BMDLS,MONTH 30,7,XXX001,Drug ABC,F,73,BLACK OR AFRICAN AMERICAN,Y,12.944,34.792,21.847,0.628,>3% change from baseline,Y,Y,Y,LUNAR,1992-11-01,1995-05-03,913,N/A,N/A,N/A,N/A
101-000127,DXA BMD at Lumbar Spine (g/cm^2),BMDLS,MONTH 36,8,XXX001,Drug ABC,F,73,BLACK OR AFRICAN AMERICAN,Y,48.285,34.792,-13.493,-0.388,>3% change from baseline,Y,Y,Y,LUNAR,1992-11-01,1995-11-01,1095,N/A,N/A,N/A,N/A
101-000128,DXA BMD at Lumbar Spine (g/cm^2),BMDLS,BASELINE,2,XXX001,Drug ABC,F,21,WHITE,Y,43.620,51.557,7.937,0.154,>3% change from baseline,Y,Y,Y,LUNAR,1992-12-05,1992-12-05,0,N/A,N/A,N/A,N/A
101-000128,DXA BMD at Lumbar Spine (g/cm^2),BMDLS,MONTH 6,3,XXX001,Drug ABC,F,21,WHITE,Y,39.531,51.557,12.026,0.233,>3% change from baseline,Y,Y,Y,LUNAR,1992-12-05,1993-06-06,183,N/A,N/A,N/A,N/A
101-000128,DXA BMD at Lumbar Spine (g/cm^2),BMDLS,MONTH 12,4,XXX001,Drug ABC,F,21,WHITE,Y,35.927,51.557,15.630,0.303,>3% change from baseline,Y,Y,Y,LUNAR,1992-12-05,1993-12-05,365,N/A,N/A,N/A,N/A
101-000128,DXA BMD at Lumbar Spine (g/cm^2),BMDLS,MONTH 18,5,XXX001,Drug ABC,F,21,WHITE,Y,32.733,51.557,18.824,0.365,>3% change from baseline,Y,Y,Y,LUNAR,1992-12-05,1994-06-06,548,N/A,N/A,N/A,N/A
101-000128,DXA BMD at Lumbar Spine (g/cm^2),BMDLS,MONTH 24,6,XXX001,Drug ABC,F,21,WHITE,Y,23.692,51.557,27.865,0.540,>3% change from baseline,Y,Y,Y,LUNAR,1992-12-05,1994-12-05,730,N/A,N/A,N/A,N/A
101-000128,DXA BMD at Lumbar Spine (g/cm^2),BMDLS,MONTH 30,7,XXX001,Drug ABC,F,21,WHITE,Y,47.126,51.557,4.431,0.086,>3% change from baseline,Y,Y,Y,LUNAR,1992-12-05,1995-06-06,913,N/A,N/A,N/A,N/A
101-000128,DXA BMD at Lumbar Spine (g/cm^2),BMDLS,MONTH 36,8,XXX001,Drug ABC,F,21,WHITE,Y,44.572,51.557,6.985,0.135,>3% change from baseline,Y,Y,Y,LUNAR,1992-12-05,1995-12-05,1095,N/A,N/A,N/A,N/A
101-000129,DXA BMD at Lumbar Spine (g/cm^2),BMDLS,BASELINE,2,XXX001,Drug ABC,F,70,WHITE,Y,31.527,16.141,-15.386,-0.953,>3% change from baseline,Y,Y,Y,HOLOGIC,1992-10-22,1992-10-22,0,N/A,N/A,N/A,N/A
101-000129,DXA BMD at Lumbar Spine (g/cm^2),BMDLS,MONTH 6,3,XXX001,Drug ABC,F,70,WHITE,Y,31.246,16.141,-15.105,-0.936,>3% change from baseline,Y,Y,Y,HOLOGIC,1992-10-22,1993-04-23,183,N/A,N/A,N/A,N/A
101-000129,DXA BMD at Lumbar Spine (g/cm^2),BMDLS,MONTH 12,4,XXX001,Drug ABC,F,70,WHITE,Y,47.989,16.141,-31.847,-1.973,>3% change from baseline,Y,Y,Y,HOLOGIC,1992-10-22,1993-10-22,365,N/A,N/A,N/A,N/A
101-000129,DXA BMD at Lumbar Spine (g/cm^2),BMDLS,MONTH 18,5,XXX001,Drug ABC,F,70,WHITE,Y,43.392,16.141,-27.250,-1.688,>3% change from baseline,Y,Y,Y,HOLOGIC,1992-10-22,1994-04-23,548,N/A,N/A,N/A,N/A
101-000129,DXA BMD at Lumbar Spine (g/cm^2),BMDLS,MONTH 24,6,XXX001,Drug ABC,F,70,WHITE,Y,40.403,16.141,-24.262,-1.503,>3% change from baseline,Y,Y,Y,HOLOGIC,1992-10-22,1994-10-22,730,N/A,N/A,N/A,N/A
101-000129,DXA BMD at Lumbar Spine (g/cm^2),BMDLS,MONTH 30,7,XXX001,Drug ABC,F,70,WHITE,Y,13.332,16.141,2.809,0.174,>3% change from baseline,Y,Y,Y,HOLOGIC,1992-10-22,1995-04-23,913,N/A,N/A,N/A,N/A
101-000129,DXA BMD at Lumbar Spine (g/cm^2),BMDLS,MONTH 36,8,XXX001,Drug ABC,F,70,WHITE,Y,14.263,16.141,1.878,0.116,>3% change from baseline,Y,Y,Y,HOLOGIC,1992-10-22,1995-10-22,1095,N/A,N/A,N/A,N/A
101-000130,DXA BMD at Lumbar Spine (g/cm^2),BMDLS,BASELINE,2,XXX001,Drug ABC,F,48,WHITE,Y,38.354,49.902,11.548,0.231,>3% change from baseline,Y,Y,Y,HOLOGIC,1992-11-21,1992-11-21,0,N/A,N/A,N/A,N/A
101-000130,DXA BMD at Lumbar Spine (g/cm^2),BMDLS,MONTH 6,3,XXX001,Drug ABC,F,48,WHITE,Y,21.453,49.902,28.449,0.570,>3% change from baseline,Y,Y,Y,HOLOGIC,1992-11-21,1993-05-23,183,N/A,N/A,N/A,N/A
101-000130,DXA BMD at Lumbar Spine (g/cm^2),BMDLS,MONTH 12,4,XXX001,Drug ABC,F,48,WHITE,Y,25.391,49.902,24.511,0.491,>3% change from baseline,Y,Y,Y,HOLOGIC,1992-11-21,1993-11-21,365,N/A,N/A,N/A,N/A
101-000130,DXA BMD at Lumbar Spine (g/cm^2),BMDLS,MONTH 18,5,XXX001,Drug ABC,F,48,WHITE,Y,25.986,49.902,23.916,0.479,>3% change from baseline,Y,Y,Y,HOLOGIC,1992-11-21,1994-05-23,548,N/A,N/A,N/A,N/A
101-000130,DXA BMD at Lumbar Spine (g/cm^2),BMDLS,MONTH 24,6,XXX001,Drug ABC,F,48,WHITE,Y,45.348,49.902,4.554,0.091,>3% change from baseline,Y,Y,Y,HOLOGIC,1992-11-21,1994-11-21,730,N/A,N/A,N/A,N/A
101-000130,DXA BMD at Lumbar Spine (g/cm^2),BMDLS,MONTH 30,7,XXX001,Drug ABC,F,48,WHITE,Y,31.797,49.902,18.104,0.363,>3% change from baseline,Y,Y,Y,HOLOGIC,1992-11-21,1995-05-23,913,N/A,N/A,N/A,N/A
101-000130,DXA BMD at Lumbar Spine (g/cm^2),BMDLS,MONTH 36,8,XXX001,Drug ABC,F,48,WHITE,Y,11.933,49.902,37.969,0.761,>3% change from baseline,Y,Y,Y,HOLOGIC,1992-11-21,1995-11-21,1095,N/A,N/A,N/A,N/A
101-000131,DXA BMD at Lumbar Spine (g/cm^2),BMDLS,BASELINE,2,XXX001,Drug ABC,M,62,WHITE,Y,53.787,44.461,-9.326,-0.210,>3% change from baseline,Y,Y,Y,HOLOGIC,1992-10-31,1992-10-31,0,N/A,N/A,N/A,N/A
101-000131,DXA BMD at Lumbar Spine (g/cm^2),BMDLS,MONTH 6,3,XXX001,Drug ABC,M,62,WHITE,Y,30.607,44.461,13.855,0.312,>3% change from baseline,Y,Y,Y,HOLOGIC,1992-10-31,1993-05-02,183,N/A,N/A,N/A,N/A
101-000131,DXA BMD at Lumbar Spine (g/cm^2),BMDLS,MONTH 12,4,XXX001,Drug ABC,M,62,WHITE,Y,49.261,44.461,-4.800,-0.108,>3% change from baseline,Y,Y,Y,HOLOGIC,1992-10-31,1993-10-31,365,N/A,N/A,N/A,N/A
101-000131,DXA BMD at Lumbar Spine (g/cm^2),BMDLS,MONTH 18,5,XXX001,Drug ABC,M,62,WHITE,Y,42.608,44.461,1.853,0.042,>3% change from baseline,Y,Y,Y,HOLOGIC,1992-10-31,1994-05-02,548,N/A,N/A,N/A,N/A
101-000131,DXA BMD at Lumbar Spine (g/cm^2),BMDLS,MONTH 24,6,XXX001,Drug ABC,M,62,WHITE,Y,13.531,44.461,30.930,0.696,>3% change from baseline,Y,Y,Y,HOLOGIC,1992-10-31,1994-10-31,730,N/A,N/A,N/A,N/A
101-000131,DXA BMD at Lumbar Spine (g/cm^2),BMDLS,MONTH 30,7,XXX001,Drug ABC,M,62,WHITE,Y,33.636,44.461,10.826,0.243,>3% change from baseline,Y,Y,Y,HOLOGIC,1992-10-31,1995-05-02,913,N/A,N/A,N/A,N/A
101-000131,DXA BMD at Lumbar Spine (g/cm^2),BMDLS,MONTH 36,8,XXX001,Drug ABC,M,62,WHITE,Y,19.635,44.461,24.827,0.558,>3% change from baseline,Y,Y,Y,HOLOGIC,1992-10-31,1995-10-31,1095,N/A,N/A,N/A,N/A
101-000132,DXA BMD at Lumbar Spine (g/cm^2),BMDLS,BASELINE,2,XXX001,Placebo,F,83,WHITE,N,38.273,35.206,-3.068,-0.087,>3% change from baseline,Y,Y,Y,LUNAR,1992-11-02,1992-11-02,0,N/A,N/A,N/A,N/A
101-000132,DXA BMD at Lumbar Spine (g/cm^2),BMDLS,MONTH 6,3,XXX001,Placebo,F,83,WHITE,N,55.131,35.206,-19.925,-0.566,>3% change from baseline,Y,Y,Y,LUNAR,1992-11-02,1993-05-04,183,N/A,N/A,N/A,N/A
101-000132,DXA BMD at Lumbar Spine (g/cm^2),BMDLS,MONTH 12,4,XXX001,Placebo,F,83,WHITE,N,30.119,35.206,5.087,0.144,>3% change from baseline,Y,Y,Y,LUNAR,1992-11-02,1993-11-02,365,N/A,N/A,N/A,N/A
101-000132,DXA BMD at Lumbar Spine (g/cm^2),BMDLS,MONTH 18,5,XXX001,Placebo,F,83,WHITE,N,50.385,35.206,-15.179,-0.431,>3% change from baseline,Y,Y,Y,LUNAR,1992-11-02,1994-05-04,548,N/A,N/A,N/A,N/A
101-000132,DXA BMD at Lumbar Spine (g/cm^2),BMDLS,MONTH 24,6,XXX001,Placebo,F,83,WHITE,N,34.739,35.206,0.466,0.013,,,Y,Y,LUNAR,1992-11-02,1994-11-02,730,N/A,N/A,N/A,N/A
101-000132,DXA BMD at Lumbar Spine (g/cm^2),BMDLS,MONTH 30,7,XXX001,Placebo,F,83,WHITE,N,37.262,35.206,-2.057,-0.058,>3% change from baseline,Y,Y,Y,LUNAR,1992-11-02,1995-05-04,913,N/A,N/A,N/A,N/A
101-000132,DXA BMD at Lumbar Spine (g/cm^2),BMDLS,MONTH 36,8,XXX001,Placebo,F,83,WHITE,N,55.432,35.206,-20.226,-0.575,>3% change from baseline,Y,Y,Y,LUNAR,1992-11-02,1995-11-02,1095,N/A,N/A,N/A,N/A
101-000133,DXA BMD at Lumbar Spine (g/cm^2),BMDLS,BASELINE,2,XXX001,Placebo,M,52,BLACK OR AFRICAN AMERICAN,N,44.692,54.230,9.538,0.176,>3% change from baseline,Y,Y,Y,LUNAR,1992-11-11,1992-11-11,0,N/A,N/A,N/A,N/A
101-000133,DXA BMD at Lumbar Spine (g/cm^2),BMDLS,MONTH 6,3,XXX001,Placebo,M,52,BLACK OR AFRICAN AMERICAN,N,27.838,54.230,26.392,0.487,>3% change from baseline,Y,Y,Y,LUNAR,1992-11-11,1993-05-13,183,N/A,N/A,N/A,N/A
101-000133,DXA BMD at Lumbar Spine (g/cm^2),BMDLS,MONTH 12,4,XXX001,Placebo,M,52,BLACK OR AFRICAN AMERICAN,N,32.532,54.230,21.697,0.400,>3% change from baseline,Y,Y,Y,LUNAR,1992-11-11,1993-11-11,365,N/A,N/A,N/A,N/A
101-000133,DXA BMD at Lumbar Spine (g/cm^2),BMDLS,MONTH 18,5,XXX001,Placebo,M,52,BLACK OR AFRICAN AMERICAN,N,52.488,54.230,1.742,0.032,>3% change from baseline,Y,Y,Y,LUNAR,1992-11-11,1994-05-13,548,N/A,N/A,N/A,N/A
101-000133,DXA BMD at Lumbar Spine (g/cm^2),BMDLS,MONTH 24,6,XXX001,Placebo,M,52,BLACK OR AFRICAN AMERICAN,N,45.622,54.230,8.608,0.159,>3% change from baseline,Y,Y,Y,LUNAR,1992-11-11,1994-11-11,730,N/A,N/A,N/A,N/A
101-000133,DXA BMD at Lumbar Spine (g/cm^2),BMDLS,MONTH 30,7,XXX001,Placebo,M,52,BLACK OR AFRICAN AMERICAN,N,52.015,54.230,2.215,0.041,>3% change from baseline,Y,Y,Y,LUNAR,1992-11-11,1995-05-13,913,N/A,N/A,N/A,N/A
101-000133,DXA BMD at Lumbar Spine (g/cm^2),BMDLS,MONTH 36,8,XXX001,Placebo,M,52,BLACK OR AFRICAN AMERICAN,N,24.003,54.230,30.227,0.557,>3% change from baseline,Y,Y,Y,LUNAR,1992-11-11,1995-11-11,1095,N/A,N/A,N/A,N/A
101-000134,DXA BMD at Lumbar Spine (g/cm^2),BMDLS,BASELINE,2,XXX001,Placebo,F,69,BLACK OR AFRICAN AMERICAN,N,47.820,49.979,2.158,0.043,>3% change from baseline,Y,Y,Y,LUNAR,1992-11-07,1992-11-07,0,N/A,N/A,N/A,N/A
101-000134,DXA BMD at Lumbar Spine (g/cm^2),BMDLS,MONTH 6,3,XXX001,Placebo,F,69,BLACK OR AFRICAN AMERICAN,N,54.868,49.979,-4.889,-0.098,>3% change from baseline,Y,Y,Y,LUNAR,1992-11-07,1993-05-09,183,N/A,N/A,N/A,N/A
101-000134,DXA BMD at Lumbar Spine (g/cm^2),BMDLS,MONTH 12,4,XXX001,Placebo,F,69,BLACK OR AFRICAN AMERICAN,N,47.230,49.979,2.749,0.055,>3% change from baseline,Y,Y,Y,LUNAR,1992-11-07,1993-11-07,365,N/A,N/A,N/A,N/A
101-000134,DXA BMD at Lumbar Spine (g/cm^2),BMDLS,MONTH 18,5,XXX001,Placebo,F,69,BLACK OR AFRICAN AMERICAN,N,18.638,49.979,31.340,0.627,>3% change from baseline,Y,Y,Y,LUNAR,1992-11-07,1994-05-09,548,N/A,N/A,N/A,N/A
101-000134,DXA BMD at Lumbar Spine (g/cm^2),BMDLS,MONTH 24,6,XXX001,Placebo,F,69,BLACK OR AFRICAN AMERICAN,N,41.582,49.979,8.397,0.168,>3% change from baseline,Y,Y,Y,LUNAR,1992-11-07,1994-11-07,730,N/A,N/A,N/A,N/A
101-000134,DXA BMD at Lumbar Spine (g/cm^2),BMDLS,MONTH 30,7,XXX001,Placebo,F,69,BLACK OR AFRICAN AMERICAN,N,56.414,49.979,-6.435,-0.129,>3% change from baseline,Y,Y,Y,LUNAR,1992-11-07,1995-05-09,913,N/A,N/A,N/A,N/A
101-000134,DXA BMD at Lumbar Spine (g/cm^2),BMDLS,MONTH 36,8,XXX001,Placebo,F,69,BLACK OR AFRICAN AMERICAN,N,41.025,49.979,8.953,0.179,>3% change from baseline,Y,Y,Y,LUNAR,1992-11-07,1995-11-07,1095,N/A,N/A,N/A,N/A
101-000135,DXA BMD at Lumbar Spine (g/cm^2),BMDLS,BASELINE,2,XXX001,Placebo,F,64,WHITE,N,33.088,41.153,8.065,0.196,>3% change from baseline,Y,Y,Y,HOLOGIC,1992-12-13,1992-12-13,0,N/A,N/A,N/A,N/A
101-000135,DXA BMD at Lumbar Spine (g/cm^2),BMDLS,MONTH 6,3,XXX001,Placebo,F,64,WHITE,N,27.132,41.153,14.021,0.341,>3% change from baseline,Y,Y,Y,HOLOGIC,1992-12-13,1993-06-14,183,N/A,N/A,N/A,N/A
101-000135,DXA BMD at Lumbar Spine (g/cm^2),BMDLS,MONTH 12,4,XXX001,Placebo,F,64,WHITE,N,19.433,41.153,21.720,0.528,>3% change from baseline,Y,Y,Y,HOLOGIC,1992-12-13,1993-12-13,365,N/A,N/A,N/A,N/A
101-000135,DXA BMD at Lumbar Spine (g/cm^2),BMDLS,MONTH 18,5,XXX001,Placebo,F,64,WHITE,N,13.435,41.153,27.719,0.674,>3% change from baseline,Y,Y,Y,HOLOGIC,1992-12-13,1994-06-14,548,N/A,N/A,N/A,N/A
101-000135,DXA BMD at Lumbar Spine (g/cm^2),BMDLS,MONTH 24,6,XXX001,Placebo,F,64,WHITE,N,24.111,41.153,17.042,0.414,>3% change from baseline,Y,Y,Y,HOLOGIC,1992-12-13,1994-12-13,730,N/A,N/A,N/A,N/A
101-000135,DXA BMD at Lumbar Spine (g/cm^2),BMDLS,MONTH 30,7,XXX001,Placebo,F,64,WHITE,N,19.976,41.153,21.177,0.515,>3% change from baseline,Y,Y,Y,HOLOGIC,1992-12-13,1995-06-14,913,N/A,N/A,N/A,N/A
101-000135,DXA BMD at Lumbar Spine (g/cm^2),BMDLS,MONTH 36,8,XXX001,Placebo,F,64,WHITE,N,42.290,41.153,-1.136,-0.028,,,Y,Y,HOLOGIC,1992-12-13,1995-12-13,1095,N/A,N/A,N/A,N/A
101-000136,DXA BMD at Lumbar Spine (g/cm^2),BMDLS,BASELINE,2,XXX001,Placebo,F,57,WHITE,N,24.186,55.613,31.428,0.565,>3% change from baseline,Y,Y,Y,LUNAR,1992-12-11,1992-12-11,0,N/A,N/A,N/A,N/A
101-000136,DXA BMD at Lumbar Spine (g/cm^2),BMDLS,MONTH 6,3,XXX001,Placebo,F,57,WHITE,N,26.026,55.613,29.587,0.532,>3% change from baseline,Y,Y,Y,LUNAR,1992-12-11,1993-06-12,183,N/A,N/A,N/A,N/A
101-000136,DXA BMD at Lumbar Spine (g/cm^2),BMDLS,MONTH 12,4,XXX001,Placebo,F,57,WHITE,N,43.321,55.613,12.292,0.221,>3% change from baseline,Y,Y,Y,LUNAR,1992-12-11,1993-12-11,365,N/A,N/A,N/A,N/A
101-000136,DXA BMD at Lumbar Spine (g/cm^2),BMDLS,MONTH 18,5,XXX001,Placebo,F,57,WHITE,N,27.909,55.613,27.705,0.498,>3% change from baseline,Y,Y,Y,LUNAR,1992-12-11,1994-06-12,548,N/A,N/A,N/A,N/A
101-000136,DXA BMD at Lumbar Spine (g/cm^2),BMDLS,MONTH 24,6,XXX001,Placebo,F,57,WHITE,N,46.601,55.613,9.012,0.162,>3% change from baseline,Y,Y,Y,LUNAR,1992-12-11,1994-12-11,730,N/A,N/A,N/A,N/A
101-000136,DXA BMD at Lumbar Spine (g/cm^2),BMDLS,MONTH 30,7,XXX001,Placebo,F,57,WHITE,N,24.360,55.613,31.254,0.562,>3% change from baseline,Y,Y,Y,LUNAR,1992-12-11,1995-06-12,913,N/A,N/A,N/A,N/A
101-000136,DXA BMD at Lumbar Spine (g/cm^2),BMDLS,MONTH 36,8,XXX001,Placebo,F,57,WHITE,N,29.968,55.613,25.645,0.461,>3% change from baseline,Y,Y,Y,LUNAR,1992-12-11,1995-12-11,1095,N/A,N/A,N/A,N/A
101-000137,DXA BMD at Lumbar Spine (g/cm^2),BMDLS,BASELINE,2,XXX001,Placebo,M,73,WHITE,N,41.933,28.373,-13.560,-0.478,>3% change from baseline,Y,Y,Y,HOLOGIC,1992-12-10,1992-12-10,0,N/A,N/A,N/A,N/A
101-000137,DXA BMD at Lumbar Spine (g/cm^2),BMDLS,MONTH 6,3,XXX001,Placebo,M,73,WHITE,N,38.566,28.373,-10.193,-0.359,>3% change from baseline,Y,Y,Y,HOLOGIC,1992-12-10,1993-06-11,183,N/A,N/A,N/A,N/A
101-000137,DXA BMD at Lumbar Spine (g/cm^2),BMDLS,MONTH 12,4,XXX001,Placebo,M,73,WHITE,N,46.984,28.373,-18.611,-0.656,>3% change from baseline,Y,Y,Y,HOLOGIC,1992-12-10,1993-12-10,365,N/A,N/A,N/A,N/A
101-000137,DXA BMD at Lumbar Spine (g/cm^2),BMDLS,MONTH 18,5,XXX001,Placebo,M,73,WHITE,N,26.977,28.373,1.396,0.049,>3% change from baseline,Y,Y,Y,HOLOGIC,1992-12-10,1994-06-11,548,N/A,N/A,N/A,N/A
101-000137,DXA BMD at Lumbar Spine (g/cm^2),BMDLS,MONTH 24,6,XXX001,Placebo,M,73,WHITE,N,25.953,28.373,2.419,0.085,>3% change from baseline,Y,Y,Y,HOLOGIC,1992-12-10,1994-12-10,730,N/A,N/A,N/A,N/A
101-000137,DXA BMD at Lumbar Spine (g/cm^2),BMDLS,MONTH 30,7,XXX001,Placebo,M,73,WHITE,N,21.395,28.373,6.978,0.246,>3% change from baseline,Y,Y,Y,HOLOGIC,1992-12-10,1995-06-11,913,N/A,N/A,N/A,N/A
101-000137,DXA BMD at Lumbar Spine (g/cm^2),BMDLS,MONTH 36,8,XXX001,Placebo,M,73,WHITE,N,26.239,28.373,2.134,0.075,>3% change from baseline,Y,Y,Y,HOLOGIC,1992-12-10,1995-12-10,1095,N/A,N/A,N/A,N/A
101-000138,DXA BMD at Lumbar Spine (g/cm^2),BMDLS,BASELINE,2,XXX001,Placebo,F,67,WHITE,N,43.411,37.334,-6.077,-0.163,>3% change from baseline,Y,Y,Y,HOLOGIC,1992-11-23,1992-11-23,0,N/A,N/A,N/A,N/A
101-000138,DXA BMD at Lumbar Spine (g/cm^2),BMDLS,MONTH 6,3,XXX001,Placebo,F,67,WHITE,N,30.761,37.334,6.573,0.176,>3% change from baseline,Y,Y,Y,HOLOGIC,1992-11-23,1993-05-25,183,N/A,N/A,N/A,N/A
101-000138,DXA BMD at Lumbar Spine (g/cm^2),BMDLS,MONTH 12,4,XXX001,Placebo,F,67,WHITE,N,34.247,37.334,3.087,0.083,>3% change from baseline,Y,Y,Y,HOLOGIC,1992-11-23,1993-11-23,365,N/A,N/A,N/A,N/A
101-000138,DXA BMD at Lumbar Spine (g/cm^2),BMDLS,MONTH 18,5,XXX001,Placebo,F,67,WHITE,N,36.416,37.334,0.919,0.025,,,Y,Y,HOLOGIC,1992-11-23,1994-05-25,548,N/A,N/A,N/A,N/A
101-000138,DXA BMD at Lumbar Spine (g/cm^2),BMDLS,MONTH 24,6,XXX001,Placebo,F,67,WHITE,N,34.561,37.334,2.774,0.074,>3% change from baseline,Y,Y,Y,HOLOGIC,1992-11-23,1994-11-23,730,N/A,N/A,N/A,N/A
101-000138,DXA BMD at Lumbar Spine (g/cm^2),BMDLS,MONTH 30,7,XXX001,Placebo,F,67,WHITE,N,56.192,37.334,-18.857,-0.505,>3% change from baseline,Y,Y,Y,HOLOGIC,1992-11-23,1995-05-25,913,N/A,N/A,N/A,N/A
101-000138,DXA BMD at Lumbar Spine (g/cm^2),BMDLS,MONTH 36,8,XXX001,Placebo,F,67,WHITE,N,12.869,37.334,24.465,0.655,>3% change from baseline,Y,Y,Y,HOLOGIC,1992-11-23,1995-11-23,1095,N/A,N/A,N/A,N/A
101-000139,DXA BMD at Lumbar Spine (g/cm^2),BMDLS,BASELINE,2,XXX001,Drug ABC,M,74,WHITE,Y,28.237,39.561,11.323,0.286,>3% change from baseline,Y,Y,Y,HOLOGIC,1992-10-22,1992-10-22,0,N/A,N/A,N/A,N/A
101-000139,DXA BMD at Lumbar Spine (g/cm^2),BMDLS,MONTH 6,3,XXX001,Drug ABC,M,74,WHITE,Y,41.922,39.561,-2.362,-0.060,>3% change from baseline,Y,Y,Y,HOLOGIC,1992-10-22,1993-04-23,183,N/A,N/A,N/A,N/A
101-000139,DXA BMD at Lumbar Spine (g/cm^2),BMDLS,MONTH 12,4,XXX001,Drug ABC,M,74,WHITE,Y,53.923,39.561,-14.363,-0.363,>3% change from baseline,Y,Y,Y,HOLOGIC,1992-10-22,1993-10-22,365,N/A,N/A,N/A,N/A
101-000139,DXA BMD at Lumbar Spine (g/cm^2),BMDLS,MONTH 18,5,XXX001,Drug ABC,M,74,WHITE,Y,32.037,39.561,7.524,0.190,>3% change from baseline,Y,Y,Y,HOLOGIC,1992-10-22,1994-04-23,548,N/A,N/A,N/A,N/A
101-000139,DXA BMD at Lumbar Spine (g/cm^2),BMDLS,MONTH 24,6,XXX001,Drug ABC,M,74,WHITE,Y,40.297,39.561,-0.737,-0.019,,,Y,Y,HOLOGIC,1992-10-22,1994-10-22,730,N/A,N/A,N/A,N/A
101-000139,DXA BMD at Lumbar Spine (g/cm^2),BMDLS,MONTH 30,7,XXX001,Drug ABC,M,74,WHITE,Y,45.433,39.561,-5.873,-0.148,>3% change from baseline,Y,Y,Y,HOLOGIC,1992-10-22,1995-04-23,913,N/A,N/A,N/A,N/A
101-000139,DXA BMD at Lumbar Spine (g/cm^2),BMDLS,MONTH 36,8,XXX001,Drug ABC,M,74,WHITE,Y,34.817,39.561,4.743,0.120,>3% change from baseline,Y,Y,Y,HOLOGIC,1992-10-22,1995-10-22,1095,N/A,N/A,N/A,N/A
101-000140,DXA BMD at Lumbar Spine (g/cm^2),BMDLS,BASELINE,2,XXX001,Placebo,M,76,WHITE,N,44.355,46.781,2.426,0.052,>3% change from baseline,Y,Y,Y,HOLOGIC,1992-11-24,1992-11-24,0,N/A,N/A,N/A,N/A
101-000140,DXA BMD at Lumbar Spine (g/cm^2),BMDLS,MONTH 6,3,XXX001,Placebo,M,76,WHITE,N,45.238,46.781,1.543,0.033,>3% change from baseline,Y,Y,Y,HOLOGIC,1992-11-24,1993-05-26,183,N/A,N/A,N/A,N/A
101-000140,DXA BMD at Lumbar Spine (g/cm^2),BMDLS,MONTH 12,4,XXX001,Placebo,M,76,WHITE,N,18.306,46.781,28.474,0.609,>3% change from baseline,Y,Y,Y,HOLOGIC,1992-11-24,1993-11-24,365,N/A,N/A,N/A,N/A
